timestamp_local,raw_acc_x,raw_acc_y,raw_acc_z,g_acc_x,g_acc_y,g_acc_z,raw_gx,raw_gy,raw_gz,filt_gx,filt_gy,filt_gz,temp,roll,pitch,yaw,q0,q1,q2,q3,vx,vy,vz,vx_filt,vy_filt,vz_filt,px,py,pz,stationary
2025-05-30 17:27:32.339,0.158,-0.007,9.847,0.572,0.112,19.558,-0.0277,0.0788,0.0383,-0.0177,0.0741,0.0389,33,0.37,-1.73,0.38,0.9982,0.0033,-0.0151,0.0034,13.367,1.818,471.609,12.907,1.758,455.151,223.532,30.849,7894.685,0
2025-05-30 17:27:32.393,0.167,-0.031,9.853,0.52,-0.009,19.566,-0.0064,0.0639,-0.0021,-0.0076,0.0665,0.0018,33,-0.2,-1.38,0.41,0.9982,-0.0017,-0.012,0.0035,13.38,1.819,472.114,12.922,1.76,455.674,224.178,30.937,7917.469,0
2025-05-30 17:27:32.446,0.153,-0.016,9.858,0.565,0.101,19.569,0.017,-0.049,-0.0234,0.0145,-0.0359,-0.0211,33,0.36,-1.72,0.33,0.9982,0.0032,-0.0151,0.0029,13.394,1.82,472.62,12.936,1.761,456.196,224.825,31.025,7940.278,0
2025-05-30 17:27:32.499,0.138,-0.02,9.855,0.482,0.067,19.568,0.0554,-0.0256,0.0575,0.0512,-0.025,0.0495,33,0.19,-1.32,0.48,0.9982,0.0017,-0.0116,0.0042,13.407,1.822,473.125,12.951,1.763,456.718,225.473,31.113,7963.114,0
2025-05-30 17:27:32.554,0.176,-0.009,9.871,0.602,0.112,19.581,0.0234,0.032,0.0,0.0261,0.0278,0.0048,33,0.38,-1.8,0.49,0.9982,0.0034,-0.0157,0.0043,13.421,1.825,473.629,12.965,1.765,457.24,226.121,31.201,7985.976,0
2025-05-30 17:27:32.608,0.142,-0.009,9.855,0.456,0.09,19.568,0.032,0.0426,0.1023,0.0313,0.0427,0.0923,33,0.26,-1.15,0.76,0.9982,0.0023,-0.01,0.0067,13.434,1.828,474.133,12.98,1.767,457.761,226.77,31.289,8008.864,0
2025-05-30 17:27:32.668,0.16,-0.027,9.851,0.579,0.096,19.562,0.0916,-0.0277,-0.0277,0.0855,-0.0191,-0.0159,33,0.39,-1.76,0.72,0.9982,0.0035,-0.0154,0.0063,13.446,1.831,474.636,12.994,1.769,458.281,227.42,31.378,8031.778,0
2025-05-30 17:27:32.721,0.169,-0.011,9.864,0.55,0.022,19.576,-0.0298,-0.0383,0.032,-0.0184,-0.0349,0.027,33,-0.13,-1.54,0.81,0.9982,-0.0011,-0.0135,0.007,13.461,1.832,475.139,13.009,1.771,458.801,228.07,31.466,8054.718,0
2025-05-30 17:27:32.775,0.163,-0.025,9.865,0.561,0.147,19.576,0.1065,0.0341,-0.017,0.0939,0.0288,-0.0128,33,0.68,-1.64,0.76,0.9982,0.006,-0.0143,0.0067,13.475,1.834,475.642,13.023,1.773,459.321,228.721,31.555,8077.684,0
2025-05-30 17:27:32.828,0.145,-0.022,9.86,0.521,0.024,19.572,-0.0831,0.0,-0.098,-0.0655,0.0044,-0.0897,33,-0.06,-1.51,0.51,0.9982,-0.0005,-0.0132,0.0045,13.489,1.837,476.144,13.037,1.775,459.84,229.373,31.644,8100.676,0
2025-05-30 17:27:32.884,0.176,-0.031,9.855,0.599,0.089,19.565,0.0234,0.049,0.0682,0.0144,0.0461,0.0522,33,0.38,-1.78,0.65,0.9982,0.0034,-0.0156,0.0057,13.503,1.838,476.645,13.052,1.777,460.358,230.026,31.733,8123.694,0
2025-05-30 17:27:32.938,0.151,0.002,9.874,0.462,0.093,19.588,-0.0213,0.0298,0.0213,-0.0178,0.033,0.0242,33,0.21,-1.13,0.72,0.9982,0.0019,-0.0099,0.0063,13.516,1.841,477.147,13.066,1.779,460.876,230.679,31.822,8146.738,0
2025-05-30 17:27:32.992,0.153,0.016,9.846,0.542,0.142,19.557,-0.0128,0.0192,0.0192,-0.0134,0.0221,0.0195,33,0.41,-1.59,0.77,0.9982,0.0037,-0.0139,0.0068,13.528,1.845,477.647,13.08,1.781,461.394,231.333,31.911,8169.808,0
2025-05-30 17:27:33.045,0.158,-0.013,9.826,0.576,-0.007,19.537,-0.0511,-0.032,0.0234,-0.0475,-0.025,0.0229,33,-0.29,-1.76,0.86,0.9982,-0.0024,-0.0154,0.0074,13.542,1.846,478.146,13.095,1.783,461.911,231.988,32.0,8192.903,0
2025-05-30 17:27:33.098,0.158,-0.014,9.838,0.546,0.097,19.55,0.032,0.0107,0.0277,0.0239,0.0087,0.027,33,0.33,-1.58,0.92,0.9982,0.003,-0.0138,0.0081,13.556,1.847,478.644,13.109,1.785,462.427,232.643,32.089,8216.024,0
2025-05-30 17:27:33.153,0.162,-0.023,9.838,0.589,-0.015,19.549,-0.0277,-0.0149,0.0341,-0.0226,-0.011,0.0332,33,-0.28,-1.81,1.03,0.9981,-0.0023,-0.0159,0.0089,13.571,1.847,479.142,13.123,1.787,462.943,233.3,32.178,8239.172,0
2025-05-30 17:27:33.207,0.145,-0.023,9.862,0.508,0.046,19.575,-0.0469,0.0341,0.0277,-0.0446,0.0311,0.0281,33,0.08,-1.43,1.09,0.9982,0.0009,-0.0125,0.0096,13.585,1.847,479.64,13.137,1.789,463.458,233.956,32.268,8262.345,0
2025-05-30 17:27:33.262,0.174,-0.022,9.864,0.616,0.075,19.574,-0.0149,0.0192,0.0959,-0.018,0.0219,0.0889,33,0.24,-1.9,1.34,0.9981,0.0023,-0.0166,0.0118,13.6,1.848,480.138,13.152,1.791,463.973,234.614,32.357,8285.543,0
2025-05-30 17:27:33.315,0.145,-0.009,9.833,0.518,0.091,19.545,-0.0107,-0.0682,-0.0554,-0.0115,-0.0576,-0.0412,33,0.26,-1.49,1.22,0.9982,0.0024,-0.013,0.0107,13.614,1.85,480.635,13.166,1.792,464.487,235.272,32.447,8308.768,0
2025-05-30 17:27:33.369,0.178,-0.022,9.844,0.66,0.07,19.553,0.0383,-0.0298,-0.0128,0.0333,-0.031,-0.0158,33,0.21,-2.13,1.18,0.9981,0.002,-0.0186,0.0103,13.63,1.852,481.131,13.18,1.794,465.001,235.931,32.537,8332.018,0
2025-05-30 17:27:33.423,0.171,-0.031,9.851,0.542,0.09,19.563,0.0959,0.0341,0.0511,0.0895,0.0291,0.0442,33,0.38,-1.49,1.31,0.9982,0.0035,-0.013,0.0115,13.646,1.854,481.626,13.195,1.796,465.514,236.591,32.627,8355.293,0
2025-05-30 17:27:33.476,0.156,-0.007,9.864,0.56,0.001,19.575,-0.1172,0.0895,0.0383,-0.0966,0.085,0.0388,33,-0.28,-1.67,1.43,0.9981,-0.0022,-0.0147,0.0125,13.66,1.855,482.122,13.209,1.798,466.027,237.252,32.716,8378.595,0
2025-05-30 17:27:33.530,0.154,-0.029,9.853,0.497,0.089,19.566,0.0447,0.0852,0.0959,0.0305,0.0868,0.09,33,0.37,-1.32,1.67,0.9981,0.0034,-0.0115,0.0147,13.673,1.855,482.618,13.223,1.8,466.539,237.913,32.806,8401.922,0
2025-05-30 17:27:33.585,0.162,-0.029,9.849,0.571,0.036,19.561,-0.0021,0.0213,-0.0746,0.001,0.0294,-0.0583,33,0.06,-1.71,1.52,0.9981,0.0007,-0.0149,0.0133,13.686,1.857,483.112,13.238,1.801,467.051,238.575,32.897,8425.274,0
2025-05-30 17:27:33.638,0.196,-0.018,9.855,0.67,0.102,19.564,-0.0511,-0.017,-0.0085,-0.046,-0.0108,-0.0137,33,0.38,-2.08,1.46,0.9981,0.0036,-0.0182,0.0129,13.703,1.858,483.606,13.252,1.803,467.562,239.237,32.987,8448.652,0
2025-05-30 17:27:33.694,0.138,-0.022,9.844,0.488,0.049,19.557,-0.0426,0.0703,-0.017,-0.0431,0.0638,-0.0169,33,0.09,-1.36,1.42,0.9982,0.0009,-0.0119,0.0124,13.719,1.86,484.1,13.267,1.805,468.073,239.901,33.077,8472.056,0
2025-05-30 17:27:33.745,0.147,-0.022,9.855,0.609,0.085,19.564,-0.0213,-0.0703,0.0724,-0.0236,-0.0553,0.0633,33,0.3,-2.01,1.59,0.9981,0.0029,-0.0176,0.014,13.732,1.862,484.593,13.281,1.807,468.583,240.565,33.167,8495.484,0
2025-05-30 17:27:33.799,0.169,-0.022,9.862,0.541,0.035,19.574,-0.0469,-0.0043,-0.0277,-0.0447,-0.0078,-0.0188,33,0.01,-1.49,1.54,0.9981,0.0003,-0.013,0.0135,13.747,1.863,485.086,13.295,1.808,469.093,241.229,33.258,8518.939,0
2025-05-30 17:27:33.855,0.142,-0.025,9.862,0.533,0.153,19.573,0.0597,-0.0085,-0.0298,0.0491,-0.0069,-0.0289,33,0.72,-1.6,1.45,0.9981,0.0064,-0.0139,0.0127,13.76,1.865,485.578,13.31,1.81,469.602,241.895,33.348,8542.42,0
2025-05-30 17:27:33.909,0.149,-0.032,9.862,0.481,0.056,19.575,0.017,0.1193,0.1385,0.0201,0.1083,0.1216,33,0.19,-1.25,1.81,0.9981,0.0019,-0.0109,0.0159,13.772,1.869,486.07,13.324,1.812,470.111,242.561,33.439,8565.926,0
2025-05-30 17:27:33.963,0.174,-0.034,9.856,0.627,0.052,19.566,0.032,-0.0682,0.1832,0.0307,-0.049,0.1769,33,0.18,-1.96,2.32,0.998,0.0019,-0.0171,0.0203,13.786,1.87,486.562,13.338,1.814,470.619,243.228,33.53,8589.457,0
2025-05-30 17:27:34.017,0.167,-0.004,9.849,0.54,0.082,19.562,-0.0874,-0.0213,0.032,-0.0757,-0.0225,0.0463,33,0.18,-1.49,2.44,0.998,0.0019,-0.013,0.0214,13.801,1.871,487.053,13.353,1.816,471.126,243.896,33.62,8613.014,0
2025-05-30 17:27:34.071,0.153,-0.016,9.853,0.619,0.071,19.562,-0.1023,-0.0192,-0.115,-0.0997,-0.0179,-0.0991,33,0.19,-2.04,2.15,0.998,0.002,-0.0178,0.0188,13.816,1.873,487.543,13.367,1.817,471.634,244.564,33.711,8636.596,0
2025-05-30 17:27:34.124,0.167,-0.038,9.869,0.541,0.079,19.581,0.1257,-0.0064,-0.0043,0.103,-0.006,-0.0139,33,0.36,-1.5,2.12,0.998,0.0034,-0.0131,0.0185,13.832,1.875,488.033,13.381,1.819,472.14,245.233,33.802,8660.203,0
2025-05-30 17:27:34.178,0.183,-0.032,9.849,0.628,0.031,19.56,0.0149,0.0064,0.032,0.0236,0.0067,0.0272,33,0.05,-1.91,2.21,0.998,0.0007,-0.0167,0.0193,13.847,1.876,488.522,13.396,1.821,472.646,245.903,33.893,8683.835,0
2025-05-30 17:27:34.233,0.147,-0.023,9.853,0.489,0.06,19.566,-0.0383,0.0234,-0.0426,-0.0323,0.0233,-0.0358,33,0.16,-1.31,2.1,0.9981,0.0016,-0.0114,0.0184,13.861,1.876,489.011,13.41,1.823,473.152,246.573,33.984,8707.492,0
2025-05-30 17:27:34.286,0.16,-0.014,9.844,0.577,0.112,19.555,0.0511,0.0405,0.1257,0.0427,0.0403,0.1094,33,0.41,-1.75,2.41,0.998,0.0039,-0.0152,0.0211,13.874,1.879,489.499,13.424,1.824,473.657,247.245,34.076,8731.175,0
2025-05-30 17:27:34.341,0.153,-0.025,9.853,0.527,-0.018,19.565,-0.0937,-0.0383,0.0383,-0.0802,-0.0289,0.0453,33,-0.28,-1.5,2.55,0.998,-0.0022,-0.0132,0.0222,13.887,1.88,489.986,13.439,1.826,474.162,247.916,34.167,8754.883,0
2025-05-30 17:27:34.395,0.154,-0.007,9.844,0.571,0.099,19.555,0.017,-0.0597,0.0831,0.0072,-0.055,0.0791,33,0.3,-1.75,2.76,0.9979,0.003,-0.0152,0.0241,13.901,1.88,490.473,13.453,1.828,474.666,248.589,34.258,8778.616,0
2025-05-30 17:27:34.447,0.163,-0.02,9.842,0.52,0.009,19.555,-0.0298,-0.0277,0.0469,-0.0262,-0.0289,0.0499,33,-0.15,-1.4,2.91,0.9979,-0.001,-0.0122,0.0254,13.914,1.881,490.96,13.467,1.829,475.169,249.262,34.35,8802.375,0
2025-05-30 17:27:34.502,0.167,-0.005,9.88,0.595,0.098,19.59,-0.0192,-0.0469,-0.017,-0.02,-0.0435,-0.0105,33,0.28,-1.81,2.87,0.9979,0.0029,-0.0158,0.0251,13.928,1.881,491.446,13.481,1.831,475.672,249.937,34.441,8826.158,0
2025-05-30 17:27:34.556,0.149,-0.023,9.846,0.499,0.095,19.558,0.1172,-0.0277,0.0447,0.1034,-0.0277,0.039,33,0.37,-1.36,2.98,0.9979,0.0036,-0.0118,0.0261,13.942,1.884,491.933,13.496,1.833,476.175,250.611,34.533,8849.967,0
2025-05-30 17:27:34.611,0.169,-0.016,9.846,0.572,0.086,19.557,0.0426,0.0831,-0.017,0.0486,0.0736,-0.0116,33,0.28,-1.67,2.96,0.9979,0.0028,-0.0145,0.0259,13.954,1.887,492.418,13.51,1.834,476.677,251.287,34.625,8873.801,0
2025-05-30 17:27:34.667,0.163,-0.005,9.828,0.491,0.185,19.54,0.0682,-0.0192,0.0128,0.0661,-0.0083,0.0102,33,0.79,-1.23,2.98,0.9979,0.0072,-0.0105,0.0261,13.967,1.892,492.902,13.524,1.836,477.179,251.963,34.716,8897.66,0
2025-05-30 17:27:34.724,0.172,-0.027,9.855,0.582,0.065,19.566,-0.0554,-0.0554,-0.0469,-0.0434,-0.0491,-0.0414,33,0.21,-1.71,2.87,0.9979,0.0022,-0.0149,0.0251,13.98,1.896,493.386,13.538,1.838,477.68,252.64,34.808,8921.544,0
2025-05-30 17:27:34.778,0.203,-0.007,9.837,0.713,0.101,19.544,-0.0362,-0.0192,0.115,-0.037,-0.0206,0.0992,33,0.31,-2.3,3.15,0.9977,0.0033,-0.02,0.0276,13.998,1.898,493.869,13.552,1.84,478.18,253.318,34.9,8945.453,0
2025-05-30 17:27:34.832,0.156,-0.023,9.847,0.623,0.05,19.557,-0.0362,-0.1193,0.0149,-0.0364,-0.1079,0.0232,33,0.1,-2.04,3.22,0.9978,0.0014,-0.0178,0.0281,14.018,1.9,494.352,13.567,1.842,478.68,253.996,34.992,8969.387,0
2025-05-30 17:27:34.886,0.16,-0.005,9.853,0.511,0.12,19.566,0.0298,0.0703,-0.1364,0.0231,0.0541,-0.1206,33,0.41,-1.37,2.87,0.9979,0.0039,-0.0118,0.0251,14.032,1.903,494.834,13.581,1.844,479.18,254.675,35.085,8993.346,0
2025-05-30 17:27:34.941,0.149,-0.045,9.853,0.526,0.018,19.565,0.0533,0.0405,0.1236,0.0501,0.0434,0.099,33,0.05,-1.52,3.16,0.9978,0.0008,-0.0133,0.0276,14.044,1.904,495.317,13.595,1.846,479.679,255.355,35.177,9017.33,0
2025-05-30 17:27:34.994,0.176,-0.034,9.878,0.647,0.067,19.587,-0.0043,-0.0128,-0.1214,0.0011,-0.0056,-0.0996,33,0.27,-2.06,2.87,0.9978,0.0028,-0.018,0.0251,14.059,1.904,495.799,13.61,1.847,480.177,256.035,35.269,9041.339,0
2025-05-30 17:27:35.050,0.138,-0.036,9.846,0.565,-0.006,19.556,-0.1065,-0.115,-0.0937,-0.0959,-0.1025,-0.0945,33,-0.15,-1.81,2.6,0.9979,-0.0009,-0.0158,0.0227,14.075,1.903,496.281,13.624,1.849,480.675,256.716,35.362,9065.373,0
2025-05-30 17:27:35.104,0.158,-0.005,9.864,0.604,0.094,19.574,-0.0383,-0.1257,-0.1108,-0.0442,-0.1218,-0.1093,33,0.26,-1.92,2.28,0.998,0.0026,-0.0167,0.0199,14.09,1.904,496.762,13.639,1.851,481.173,257.398,35.454,9089.432,0
2025-05-30 17:27:35.156,0.178,-0.014,9.881,0.492,0.09,19.595,0.0426,0.0916,0.1406,0.0338,0.0718,0.1154,33,0.29,-1.15,2.61,0.998,0.0027,-0.01,0.0228,14.104,1.906,497.244,13.653,1.852,481.67,258.081,35.547,9113.516,0
2025-05-30 17:27:35.210,0.156,-0.016,9.894,0.522,0.027,19.607,-0.1129,0.0916,0.0149,-0.0984,0.0912,0.0248,33,-0.07,-1.45,2.68,0.998,-0.0003,-0.0127,0.0234,14.115,1.908,497.726,13.667,1.854,482.167,258.764,35.64,9137.624,0
2025-05-30 17:27:35.263,0.14,-0.04,9.864,0.539,0.105,19.575,0.0298,-0.0192,0.0128,0.0169,-0.0066,0.0138,33,0.52,-1.64,2.71,0.9979,0.0049,-0.0143,0.0237,14.127,1.909,498.206,13.681,1.856,482.663,259.448,35.732,9161.757,0
2025-05-30 17:27:35.319,0.127,-0.068,9.837,0.474,-0.048,19.55,-0.0724,0.0447,0.0639,-0.0636,0.0412,0.0587,33,-0.2,-1.34,2.89,0.9979,-0.0015,-0.0117,0.0252,14.138,1.908,498.685,13.696,1.858,483.158,260.133,35.825,9185.915,0
2025-05-30 17:27:35.371,0.136,-0.004,9.846,0.522,0.116,19.558,0.0213,-0.032,0.0895,0.0127,-0.0231,0.0862,33,0.37,-1.56,3.12,0.9978,0.0036,-0.0136,0.0273,14.149,1.908,499.163,13.71,1.859,483.654,260.819,35.918,9210.098,0
2025-05-30 17:27:35.426,0.178,-0.002,9.889,0.622,0.113,19.599,0.0724,0.0724,0.0021,0.0664,0.0645,0.0104,33,0.35,-1.91,3.16,0.9978,0.0035,-0.0166,0.0277,14.164,1.912,499.642,13.724,1.861,484.148,261.505,36.011,9234.305,0
2025-05-30 17:27:35.481,0.153,-0.043,9.862,0.487,0.001,19.575,-0.0277,0.0703,-0.0383,-0.0184,0.0713,-0.0337,33,-0.07,-1.27,3.07,0.9979,-0.0003,-0.0111,0.0269,14.177,1.913,500.121,13.738,1.862,484.642,262.192,36.104,9258.537,0
2025-05-30 17:27:35.534,0.154,-0.043,9.874,0.578,-0.002,19.585,-0.0937,-0.0085,-0.0383,-0.0863,0.001,-0.0381,33,-0.08,-1.79,2.96,0.9979,-0.0003,-0.0157,0.0259,14.19,1.911,500.599,13.752,1.864,485.136,262.879,36.198,9282.794,0
2025-05-30 17:27:35.588,0.138,-0.022,9.837,0.502,0.109,19.549,0.0618,-0.0256,0.0618,0.0469,-0.0213,0.0516,33,0.44,-1.44,3.1,0.9979,0.0042,-0.0125,0.0271,14.202,1.912,501.076,13.766,1.865,485.629,263.568,36.291,9307.075,0
2025-05-30 17:27:35.641,0.167,-0.004,9.851,0.547,0.1,19.563,0.049,0.1513,-0.0469,0.0487,0.1356,-0.0372,33,0.28,-1.54,3.0,0.9979,0.0028,-0.0134,0.0263,14.214,1.915,501.551,13.779,1.867,486.122,264.257,36.384,9331.381,0
2025-05-30 17:27:35.696,0.162,-0.043,9.851,0.584,-0.04,19.562,-0.0341,-0.0192,-0.0597,-0.0259,-0.0021,-0.0576,33,-0.31,-1.78,2.85,0.9979,-0.0023,-0.0156,0.0249,14.228,1.915,502.027,13.793,1.868,486.614,264.946,36.478,9355.712,0
2025-05-30 17:27:35.749,0.158,-0.016,9.849,0.579,0.04,19.56,-0.0874,-0.066,0.0383,-0.0813,-0.0581,0.0286,33,0.0,-1.77,2.92,0.9979,0.0004,-0.0155,0.0255,14.243,1.913,502.502,13.807,1.87,487.106,265.637,36.571,9380.067,0
2025-05-30 17:27:35.805,0.169,-0.005,9.858,0.545,0.119,19.57,-0.0447,0.0341,0.0064,-0.0485,0.0264,0.0084,33,0.4,-1.51,2.93,0.9979,0.0039,-0.0131,0.0256,14.257,1.915,502.977,13.821,1.871,487.597,266.328,36.665,9404.447,0
2025-05-30 17:27:35.857,0.133,-0.029,9.849,0.518,-0.007,19.561,-0.0064,-0.066,0.0383,-0.0107,-0.0552,0.0352,33,-0.19,-1.57,3.04,0.9979,-0.0013,-0.0137,0.0265,14.269,1.916,503.451,13.835,1.873,488.088,267.019,36.758,9428.852,0
2025-05-30 17:27:35.912,0.144,-0.007,9.862,0.497,0.105,19.575,-0.0192,0.0575,-0.0895,-0.0184,0.0478,-0.0772,33,0.33,-1.38,2.8,0.9979,0.0032,-0.012,0.0245,14.28,1.917,503.925,13.849,1.874,488.578,267.712,36.852,9453.28,0
2025-05-30 17:27:35.967,0.162,-0.027,9.838,0.611,0.029,19.549,-0.0064,-0.0383,-0.066,-0.0077,-0.0282,-0.0674,33,0.0,-1.94,2.62,0.9979,0.0004,-0.017,0.0229,14.294,1.918,504.398,13.863,1.875,489.068,268.405,36.946,9477.733,0
2025-05-30 17:27:36.020,0.117,-0.02,9.86,0.467,0.07,19.573,0.0021,0.017,-0.0639,0.001,0.0141,-0.0644,33,0.2,-1.36,2.43,0.998,0.002,-0.0119,0.0213,14.306,1.919,504.871,13.876,1.877,489.557,269.099,37.04,9502.211,0
2025-05-30 17:27:36.074,0.12,-0.027,9.855,0.562,0.001,19.565,0.0362,-0.0767,0.0043,0.0326,-0.0661,-0.0028,33,-0.16,-1.89,2.44,0.9979,-0.001,-0.0166,0.0213,14.318,1.918,505.344,13.89,1.878,490.046,269.793,37.133,9526.713,0
2025-05-30 17:27:36.128,0.108,-0.047,9.846,0.452,0.038,19.559,0.049,0.017,0.0213,0.0472,0.0103,0.0187,33,0.17,-1.33,2.48,0.998,0.0017,-0.0116,0.0217,14.329,1.917,505.815,13.904,1.879,490.534,270.488,37.227,9551.239,0
2025-05-30 17:27:36.183,0.122,-0.013,9.869,0.57,0.124,19.579,-0.0533,-0.0895,-0.1065,-0.0433,-0.0779,-0.0942,33,0.48,-1.93,2.2,0.998,0.0045,-0.0168,0.0193,14.34,1.92,506.287,13.917,1.881,491.022,271.184,37.321,9575.79,0
2025-05-30 17:27:36.236,0.136,-0.031,9.858,0.524,0.036,19.57,-0.0192,-0.0341,0.081,-0.0217,-0.0369,0.0633,33,0.07,-1.58,2.39,0.998,0.0009,-0.0138,0.0209,14.353,1.922,506.759,13.931,1.882,491.51,271.881,37.416,9600.365,0
2025-05-30 17:27:36.289,0.133,-0.018,9.864,0.455,0.121,19.577,-0.0085,0.0149,0.0043,-0.01,0.0113,0.01,33,0.49,-1.2,2.41,0.998,0.0045,-0.0104,0.0211,14.363,1.924,507.229,13.944,1.883,491.996,272.578,37.51,9624.965,0
2025-05-30 17:27:36.343,0.144,-0.002,9.849,0.569,0.068,19.56,-0.0554,-0.0426,-0.1278,-0.051,-0.0357,-0.1142,33,0.08,-1.8,2.09,0.998,0.001,-0.0157,0.0183,14.374,1.926,507.7,13.957,1.884,492.483,273.276,37.604,9649.589,0
2025-05-30 17:27:36.398,0.153,-0.034,9.851,0.454,0.06,19.565,0.0213,0.066,0.0021,0.014,0.0574,-0.0097,33,0.23,-1.07,2.06,0.9981,0.0021,-0.0093,0.018,14.385,1.928,508.169,13.971,1.886,492.969,273.975,37.698,9674.237,0
2025-05-30 17:27:36.452,0.153,-0.007,9.865,0.549,0.109,19.577,0.0256,-0.0043,0.0447,0.0243,0.0035,0.0391,33,0.35,-1.63,2.17,0.998,0.0034,-0.0142,0.019,14.396,1.93,508.639,13.984,1.887,493.454,274.674,37.793,9698.91,0
2025-05-30 17:27:36.507,0.149,-0.043,9.835,0.557,-0.038,19.546,-0.0405,-0.081,-0.032,-0.0341,-0.0709,-0.025,33,-0.29,-1.7,2.11,0.998,-0.0023,-0.0149,0.0184,14.409,1.93,509.107,13.997,1.889,493.939,275.374,37.887,9723.607,0
2025-05-30 17:27:36.560,0.124,-0.027,9.878,0.456,0.057,19.591,-0.0021,0.0597,0.0937,-0.0054,0.0482,0.0817,33,0.17,-1.26,2.33,0.998,0.0017,-0.0109,0.0204,14.42,1.928,509.575,14.01,1.89,494.423,276.074,37.981,9748.328,0
2025-05-30 17:27:36.616,0.138,-0.014,9.851,0.529,0.098,19.563,0.0021,0.0724,0.0383,0.0013,0.0716,0.0425,33,0.33,-1.6,2.45,0.998,0.0032,-0.0139,0.0215,14.43,1.93,510.044,14.023,1.891,494.907,276.775,38.076,9773.073,0
2025-05-30 17:27:36.674,0.131,-0.027,9.864,0.44,0.053,19.577,0.0937,0.0298,0.0618,0.0844,0.0356,0.0597,33,0.14,-1.12,2.63,0.998,0.0015,-0.0097,0.023,14.44,1.932,510.511,14.036,1.892,495.391,277.477,38.171,9797.843,0
2025-05-30 17:27:36.727,0.135,-0.052,9.851,0.561,0.006,19.562,0.0128,-0.0618,-0.0341,0.0198,-0.0505,-0.0249,33,0.01,-1.8,2.57,0.9979,0.0005,-0.0158,0.0224,14.451,1.931,510.978,14.049,1.894,495.874,278.18,38.265,9822.637,0
2025-05-30 17:27:36.832,0.138,-0.013,9.828,0.467,0.11,19.541,0.0085,0.049,-0.0277,0.0095,0.0406,-0.0276,33,0.39,-1.24,2.48,0.998,0.0037,-0.0107,0.0217,14.462,1.932,511.444,14.062,1.895,496.356,278.883,38.36,9847.454,0
2025-05-30 17:27:36.836,0.14,-0.029,9.853,0.569,0.017,19.564,-0.032,-0.0682,-0.1001,-0.0279,-0.0557,-0.0931,33,-0.06,-1.82,2.22,0.998,-0.0002,-0.0159,0.0194,14.473,1.933,511.909,14.075,1.896,496.838,279.586,38.455,9872.296,0
2025-05-30 17:27:36.888,0.151,-0.034,9.86,0.521,0.047,19.572,-0.0426,-0.0426,0.0959,-0.0413,-0.0424,0.0768,33,0.15,-1.48,2.43,0.998,0.0016,-0.0129,0.0213,14.486,1.932,512.375,14.087,1.897,497.32,280.291,38.55,9897.162,0
2025-05-30 17:27:36.942,0.138,-0.005,9.86,0.512,0.144,19.572,-0.0618,0.0213,-0.0788,-0.0598,0.0165,-0.0635,33,0.55,-1.5,2.24,0.998,0.0051,-0.013,0.0196,14.498,1.935,512.84,14.1,1.898,497.801,280.996,38.645,9922.052,0
2025-05-30 17:27:36.997,0.162,-0.014,9.842,0.565,0.051,19.554,0.0213,0.0192,0.0575,0.0131,0.0205,0.0452,33,0.06,-1.67,2.38,0.998,0.0008,-0.0146,0.0208,14.51,1.938,513.304,14.113,1.9,498.281,281.701,38.74,9946.966,0
2025-05-30 17:27:37.052,0.111,-0.022,9.865,0.434,0.056,19.579,-0.0597,-0.0277,-0.0767,-0.0525,-0.0213,-0.0647,33,0.13,-1.2,2.19,0.9981,0.0014,-0.0105,0.0192,14.52,1.939,513.768,14.126,1.901,498.761,282.408,38.835,9971.904,0
2025-05-30 17:27:37.105,0.138,-0.032,9.84,0.546,0.045,19.552,0.0,0.0298,-0.098,-0.0054,0.0263,-0.0949,33,0.13,-1.7,1.92,0.9981,0.0014,-0.0148,0.0168,14.53,1.939,514.232,14.138,1.902,499.241,283.115,38.93,9996.866,0
2025-05-30 17:27:37.158,0.145,-0.011,9.844,0.474,0.102,19.557,-0.0597,0.0064,0.1172,-0.0543,0.0099,0.0958,33,0.33,-1.23,2.18,0.9981,0.0031,-0.0107,0.0191,14.541,1.941,514.694,14.151,1.903,499.72,283.822,39.025,10021.853,0
2025-05-30 17:27:37.212,0.147,-0.011,9.849,0.524,0.135,19.561,0.1342,0.1044,0.0277,0.1153,0.0965,0.0343,33,0.53,-1.51,2.28,0.998,0.0049,-0.0131,0.02,14.552,1.945,515.157,14.163,1.905,500.198,284.53,39.12,10046.862,0
2025-05-30 17:27:37.266,0.14,-0.034,9.858,0.511,0.035,19.571,0.0405,-0.0043,0.1768,0.0478,0.0074,0.1624,33,0.08,-1.48,2.76,0.9979,0.001,-0.0129,0.0242,14.563,1.947,515.619,14.176,1.906,500.677,285.239,39.215,10071.896,0
2025-05-30 17:27:37.321,0.124,-0.013,9.849,0.409,0.132,19.563,-0.0405,0.1065,-0.1108,-0.0318,0.0982,-0.0837,33,0.52,-0.98,2.51,0.998,0.0048,-0.0084,0.022,14.571,1.95,516.08,14.188,1.907,501.154,285.948,39.311,10096.954,0
2025-05-30 17:27:37.376,0.151,-0.022,9.862,0.515,0.066,19.574,-0.017,0.0021,0.0831,-0.0186,0.0133,0.0662,33,0.19,-1.44,2.71,0.998,0.002,-0.0125,0.0237,14.58,1.953,516.542,14.2,1.909,501.631,286.658,39.406,10122.036,0
2025-05-30 17:27:37.429,0.147,-0.025,9.856,0.606,0.075,19.566,0.0575,0.0021,-0.0298,0.0498,0.0048,-0.0204,33,0.26,-1.99,2.65,0.9979,0.0027,-0.0174,0.0232,14.593,1.954,517.003,14.212,1.91,502.108,287.369,39.502,10147.142,0
2025-05-30 17:27:37.484,0.138,-0.029,9.86,0.518,0.047,19.572,-0.0149,-0.0405,-0.049,-0.0086,-0.0344,-0.0463,33,0.12,-1.53,2.52,0.998,0.0014,-0.0134,0.0221,14.607,1.955,517.463,14.225,1.912,502.584,288.08,39.597,10172.271,0
2025-05-30 17:27:37.537,0.14,-0.027,9.856,0.466,0.108,19.57,-0.0554,0.0085,0.0298,-0.0508,0.0058,0.022,33,0.46,-1.22,2.57,0.998,0.0043,-0.0106,0.0225,14.617,1.957,517.924,14.237,1.913,503.06,288.792,39.693,10197.424,0
2025-05-30 17:27:37.590,0.138,-0.029,9.838,0.516,0.053,19.551,0.0533,0.0298,0.1044,0.0427,0.029,0.096,33,0.16,-1.52,2.86,0.9979,0.0017,-0.0133,0.025,14.627,1.959,518.383,14.249,1.914,503.535,289.505,39.789,10222.601,0
2025-05-30 17:27:37.646,0.133,-0.002,9.853,0.494,0.218,19.564,0.098,-0.0447,-0.1278,0.0924,-0.0358,-0.1056,33,0.96,-1.43,2.54,0.9979,0.0087,-0.0123,0.0223,14.637,1.964,518.841,14.261,1.916,504.01,290.218,39.885,10247.801,0
2025-05-30 17:27:37.700,0.153,-0.032,9.844,0.534,0.048,19.556,-0.1087,-0.0021,0.0298,-0.0887,-0.0039,0.0161,33,0.15,-1.54,2.6,0.998,0.0016,-0.0135,0.0228,14.648,1.969,519.299,14.273,1.918,504.484,290.931,39.98,10273.025,0
2025-05-30 17:27:37.754,0.136,-0.022,9.853,0.489,0.13,19.565,0.0234,-0.1044,-0.1427,0.0121,-0.0928,-0.1271,33,0.56,-1.37,2.23,0.998,0.0052,-0.0119,0.0196,14.659,1.971,519.757,14.285,1.919,504.958,291.645,40.076,10298.273,0
2025-05-30 17:27:37.808,0.129,-0.04,9.853,0.49,0.012,19.566,-0.0064,0.0234,0.1257,-0.0047,0.0134,0.1002,33,-0.02,-1.42,2.53,0.998,0.0001,-0.0124,0.0221,14.669,1.973,520.215,14.297,1.921,505.431,292.36,40.172,10323.545,0
2025-05-30 17:27:37.862,0.136,-0.045,9.838,0.54,0.068,19.55,-0.0341,0.0405,-0.0533,-0.0313,0.0393,-0.0381,33,0.34,-1.67,2.41,0.998,0.0032,-0.0145,0.0211,14.68,1.972,520.671,14.309,1.923,505.904,293.076,40.269,10348.84,0
2025-05-30 17:27:37.916,0.135,-0.02,9.826,0.48,0.072,19.539,0.0788,-0.0597,-0.0447,0.0677,-0.0482,-0.0443,33,0.22,-1.33,2.29,0.998,0.0021,-0.0116,0.0201,14.691,1.974,521.127,14.321,1.924,506.377,293.792,40.365,10374.158,0
2025-05-30 17:27:37.968,0.131,-0.027,9.864,0.533,0.007,19.575,-0.0554,0.081,0.0469,-0.0432,0.0696,0.0376,33,-0.13,-1.66,2.41,0.998,-0.0008,-0.0145,0.021,14.701,1.974,521.583,14.333,1.926,506.848,294.508,40.461,10399.501,0
2025-05-30 17:27:38.022,0.131,-0.005,9.837,0.496,0.145,19.549,0.0703,-0.0234,-0.0256,0.0588,-0.0126,-0.0194,33,0.56,-1.45,2.34,0.998,0.0051,-0.0125,0.0205,14.712,1.975,522.038,14.345,1.927,507.32,295.226,40.557,10424.867,0
2025-05-30 17:27:38.078,0.119,-0.027,9.856,0.453,0.057,19.57,0.0618,0.032,0.0085,0.0614,0.0291,0.0055,33,0.17,-1.27,2.37,0.998,0.0017,-0.011,0.0207,14.721,1.978,522.493,14.356,1.929,507.791,295.943,40.654,10450.257,0
2025-05-30 17:27:38.132,0.154,-0.013,9.846,0.609,0.114,19.555,0.032,-0.0639,-0.1278,0.0348,-0.0531,-0.1147,33,0.42,-1.97,2.03,0.998,0.004,-0.0172,0.0178,14.733,1.981,522.948,14.368,1.931,508.261,296.662,40.75,10475.67,0
2025-05-30 17:27:38.185,0.153,-0.027,9.842,0.546,0.048,19.554,-0.0021,-0.0426,-0.0447,0.0014,-0.0421,-0.0519,33,0.12,-1.61,1.9,0.9981,0.0012,-0.0141,0.0166,14.747,1.983,523.402,14.38,1.932,508.731,297.381,40.847,10501.106,0
2025-05-30 17:27:38.239,0.127,0.016,9.856,0.442,0.153,19.57,-0.0511,0.0682,0.0,-0.046,0.0587,-0.0054,33,0.48,-1.15,1.87,0.9981,0.0043,-0.01,0.0164,14.757,1.986,523.855,14.392,1.934,509.201,298.1,40.944,10526.566,0
2025-05-30 17:27:38.294,0.165,-0.016,9.856,0.518,0.068,19.569,-0.017,0.1044,-0.0618,-0.0201,0.1014,-0.0563,33,0.17,-1.37,1.71,0.9981,0.0017,-0.012,0.015,14.766,1.989,524.309,14.403,1.936,509.67,298.821,41.04,10552.05,0
2025-05-30 17:27:38.346,0.156,-0.041,9.867,0.592,-0.006,19.578,-0.0277,0.0043,0.0405,-0.027,0.0155,0.0306,33,-0.12,-1.86,1.81,0.9981,-0.0008,-0.0163,0.0158,14.779,1.989,524.762,14.415,1.937,510.138,299.541,41.137,10577.557,0
2025-05-30 17:27:38.402,0.126,-0.029,9.842,0.476,0.088,19.555,0.0703,0.0021,-0.0128,0.0605,0.005,-0.0086,33,0.36,-1.36,1.78,0.9981,0.0033,-0.0119,0.0156,14.791,1.989,525.215,14.427,1.939,510.606,300.263,41.234,10603.087,0
2025-05-30 17:27:38.455,0.124,-0.041,9.876,0.487,-0.022,19.589,-0.0064,0.0064,0.1065,0.0002,0.0078,0.0948,33,-0.21,-1.43,2.06,0.9981,-0.0016,-0.0126,0.018,14.8,1.989,525.667,14.438,1.94,511.074,300.985,41.331,10628.641,0
2025-05-30 17:27:38.510,0.154,-0.011,9.878,0.507,0.107,19.591,0.0128,0.0895,-0.0021,0.0114,0.0829,0.0074,33,0.36,-1.37,2.07,0.9981,0.0034,-0.0119,0.0181,14.81,1.989,526.12,14.45,1.942,511.541,301.707,41.428,10654.218,0
2025-05-30 17:27:38.563,0.149,-0.027,9.846,0.533,0.042,19.558,0.049,0.0703,-0.0277,0.0451,0.0731,-0.0244,33,0.08,-1.55,2.01,0.9981,0.0009,-0.0136,0.0176,14.822,1.991,526.572,14.462,1.943,512.008,302.43,41.526,10679.818,0
2025-05-30 17:27:38.617,0.136,-0.016,9.872,0.468,0.159,19.585,0.0383,0.0107,0.0277,0.0389,0.0185,0.0223,33,0.7,-1.25,2.06,0.9981,0.0063,-0.0108,0.0181,14.832,1.994,527.023,14.473,1.945,512.474,303.154,41.623,10705.442,0
2025-05-30 17:27:38.675,0.16,-0.018,9.844,0.523,0.128,19.556,0.1087,0.0618,0.1683,0.1016,0.059,0.1535,33,0.53,-1.44,2.51,0.998,0.0049,-0.0124,0.022,14.842,1.999,527.473,14.485,1.947,512.94,303.878,41.72,10731.09,0
2025-05-30 17:27:38.730,0.133,-0.018,9.837,0.497,0.075,19.549,0.0895,0.0107,-0.0256,0.0906,0.0171,-0.0078,33,0.22,-1.44,2.5,0.998,0.0022,-0.0126,0.0219,14.852,2.002,527.923,14.496,1.948,513.405,304.603,41.818,10756.76,0
2025-05-30 17:27:38.785,0.11,-0.016,9.842,0.35,0.092,19.557,0.0064,0.0575,0.0341,0.0147,0.055,0.0297,33,0.31,-0.72,2.59,0.998,0.0029,-0.0062,0.0226,14.859,2.004,528.371,14.507,1.95,513.87,305.328,41.915,10782.453,0
2025-05-30 17:27:38.839,0.16,-0.022,9.846,0.509,0.052,19.559,-0.0533,-0.0341,0.0256,-0.0466,-0.0236,0.0258,33,0.11,-1.35,2.66,0.998,0.0012,-0.0118,0.0233,14.865,2.006,528.82,14.519,1.952,514.335,306.054,42.013,10808.17,0
2025-05-30 17:27:38.892,0.129,-0.038,9.851,0.569,0.061,19.561,0.0746,0.017,0.179,0.0623,0.0145,0.1635,33,0.25,-1.88,3.13,0.9978,0.0026,-0.0164,0.0274,14.877,2.007,529.268,14.53,1.954,514.798,306.781,42.11,10833.91,0
2025-05-30 17:27:38.946,0.136,-0.031,9.846,0.453,0.027,19.559,-0.0426,0.0618,-0.032,-0.0322,0.0586,-0.0126,33,0.01,-1.16,3.1,0.9979,0.0004,-0.0102,0.0271,14.888,2.007,529.716,14.541,1.955,515.262,307.508,42.208,10859.673,0
2025-05-30 17:27:39.001,0.127,-0.022,9.829,0.556,0.079,19.54,-0.0213,-0.0788,0.0703,-0.0225,-0.0635,0.0618,33,0.26,-1.82,3.27,0.9978,0.0028,-0.0158,0.0286,14.898,2.007,530.163,14.552,1.957,515.725,308.235,42.306,10885.459,0
2025-05-30 17:27:39.056,0.149,-0.027,9.855,0.428,0.03,19.569,-0.0149,0.1385,0.0959,-0.0158,0.1199,0.0923,33,0.01,-0.94,3.54,0.9978,0.0003,-0.0082,0.0309,14.908,2.008,530.609,14.563,1.958,516.187,308.964,42.404,10911.269,0
2025-05-30 17:27:39.109,0.14,-0.023,9.851,0.486,0.053,19.564,-0.0234,0.0426,-0.1726,-0.0228,0.0519,-0.1463,33,0.12,-1.34,3.12,0.9979,0.0014,-0.0117,0.0273,14.916,2.008,531.056,14.574,1.96,516.649,309.692,42.502,10937.101,0
2025-05-30 17:27:39.162,0.129,-0.023,9.855,0.558,0.098,19.565,-0.0085,-0.0043,0.0192,-0.0101,0.0029,0.0024,33,0.39,-1.82,3.12,0.9978,0.0038,-0.0158,0.0273,14.927,2.01,531.502,14.585,1.962,517.111,310.422,42.6,10962.956,0
2025-05-30 17:27:39.216,0.126,-0.036,9.856,0.487,0.03,19.569,0.0,-0.032,-0.0064,-0.0011,-0.0269,-0.0057,33,0.06,-1.43,3.11,0.9979,0.0009,-0.0125,0.0272,14.938,2.011,531.948,14.596,1.963,517.572,311.151,42.698,10988.835,0
2025-05-30 17:27:39.271,0.135,-0.023,9.856,0.572,0.109,19.567,-0.0575,-0.0937,-0.0469,-0.052,-0.0855,-0.0429,33,0.45,-1.87,2.97,0.9978,0.0044,-0.0163,0.026,14.95,2.013,532.394,14.607,1.965,518.033,311.882,42.796,11014.736,0
2025-05-30 17:27:39.324,0.144,-0.018,9.831,0.48,0.062,19.545,0.0128,0.0554,0.0,0.0062,0.0429,-0.0045,33,0.15,-1.28,2.97,0.9979,0.0016,-0.0111,0.0259,14.961,2.015,532.838,14.619,1.966,518.493,312.613,42.895,11040.661,0
2025-05-30 17:27:39.379,0.126,-0.045,9.86,0.521,-0.041,19.572,-0.0618,0.049,-0.0724,-0.0551,0.05,-0.0658,33,-0.3,-1.62,2.79,0.9979,-0.0023,-0.0143,0.0243,14.971,2.013,533.282,14.63,1.968,518.953,313.344,42.993,11066.608,0
2025-05-30 17:27:39.434,0.151,-0.034,9.867,0.576,0.053,19.578,-0.0277,-0.1044,-0.0426,-0.0305,-0.0874,-0.0451,33,0.18,-1.8,2.64,0.9979,0.002,-0.0157,0.0231,14.983,2.012,533.727,14.641,1.969,519.412,314.076,43.091,11092.579,0
2025-05-30 17:27:39.490,0.153,-0.014,9.871,0.468,0.072,19.585,-0.0511,0.0405,-0.0383,-0.0492,0.0293,-0.0392,33,0.18,-1.16,2.53,0.998,0.0018,-0.0101,0.0221,14.995,2.013,534.171,14.652,1.97,519.871,314.809,43.19,11118.572,0
2025-05-30 17:27:39.542,0.144,0.007,9.872,0.558,0.14,19.584,0.0128,-0.0298,0.0469,0.0065,-0.0224,0.0381,33,0.45,-1.73,2.63,0.9979,0.0043,-0.0151,0.023,15.005,2.016,534.615,14.663,1.972,520.329,315.542,43.289,11144.589,0
2025-05-30 17:27:39.599,0.167,-0.011,9.871,0.55,0.096,19.583,0.1491,-0.0085,0.0618,0.1348,-0.0083,0.0592,33,0.3,-1.55,2.81,0.9979,0.0029,-0.0135,0.0246,15.018,2.02,535.059,14.674,1.973,520.787,316.276,43.387,11170.628,0
2025-05-30 17:27:39.651,0.138,-0.029,9.876,0.52,-0.024,19.588,-0.0426,-0.0852,-0.0533,-0.025,-0.076,-0.0422,33,-0.29,-1.55,2.71,0.9979,-0.0023,-0.0136,0.0236,15.03,2.02,535.502,14.685,1.975,521.245,317.01,43.486,11196.69,0
2025-05-30 17:27:39.704,0.147,-0.04,9.853,0.513,0.059,19.565,-0.0064,0.0447,0.0533,-0.0084,0.0342,0.0435,33,0.25,-1.45,2.82,0.9979,0.0025,-0.0126,0.0246,15.04,2.019,535.944,14.696,1.976,521.702,317.745,43.585,11222.775,0
2025-05-30 17:27:39.761,0.147,-0.04,9.864,0.554,-0.013,19.575,0.0298,0.0149,0.0682,0.0259,0.0184,0.0655,33,-0.17,-1.69,3.02,0.9979,-0.0011,-0.0148,0.0263,15.052,2.018,536.386,14.707,1.978,522.158,318.48,43.684,11248.884,0
2025-05-30 17:27:39.813,0.102,-0.032,9.867,0.449,0.056,19.58,0.0064,-0.0447,-0.0256,0.0082,-0.0369,-0.0166,33,0.2,-1.34,2.96,0.9979,0.002,-0.0117,0.0259,15.062,2.017,536.827,14.718,1.979,522.615,319.216,43.783,11275.015,0
2025-05-30 17:27:39.864,0.138,-0.013,9.851,0.638,0.141,19.559,0.0767,-0.1342,0.0682,0.0697,-0.1229,0.0595,33,0.58,-2.23,3.12,0.9977,0.0056,-0.0194,0.0274,15.074,2.02,537.268,14.729,1.98,523.07,319.952,43.882,11301.168,0
2025-05-30 17:27:39.919,0.163,-0.034,9.89,0.62,0.031,19.6,-0.0724,-0.0682,0.081,-0.0583,-0.0721,0.0786,33,0.06,-1.98,3.36,0.9977,0.001,-0.0173,0.0293,15.09,2.023,537.709,14.741,1.981,523.526,320.689,43.981,11327.345,0
2025-05-30 17:27:39.974,0.147,-0.004,9.86,0.478,0.14,19.573,0.0746,0.1001,-0.0447,0.0612,0.0845,-0.0326,33,0.51,-1.24,3.26,0.9978,0.0048,-0.0107,0.0285,15.103,2.025,538.149,14.752,1.983,523.981,321.427,44.08,11353.544,0
2025-05-30 17:27:40.027,0.126,-0.029,9.858,0.507,0.066,19.57,0.081,-0.0277,-0.066,0.0789,-0.0149,-0.0629,33,0.23,-1.54,3.09,0.9979,0.0024,-0.0134,0.027,15.112,2.028,538.589,14.763,1.984,524.435,322.165,44.179,11379.766,0
2025-05-30 17:27:40.082,0.144,-0.013,9.872,0.454,0.17,19.586,0.017,0.0234,0.0383,0.0231,0.0212,0.028,33,0.74,-1.12,3.16,0.9979,0.0068,-0.0096,0.0277,15.121,2.032,539.028,14.774,1.986,524.889,322.904,44.278,11406.01,0
2025-05-30 17:27:40.137,0.154,-0.041,9.855,0.546,0.037,19.567,-0.0554,-0.0618,0.1087,-0.0477,-0.0519,0.1004,33,0.13,-1.6,3.46,0.9978,0.0016,-0.014,0.0302,15.131,2.035,539.467,14.786,1.987,525.343,323.643,44.378,11432.277,0
2025-05-30 17:27:40.191,0.151,0.009,9.856,0.512,0.212,19.568,0.0724,0.0426,0.0937,0.0603,0.0347,0.0942,33,0.86,-1.42,3.71,0.9977,0.0079,-0.0122,0.0325,15.142,2.039,539.905,14.797,1.989,525.796,324.383,44.477,11458.567,0
2025-05-30 17:27:40.244,0.142,-0.04,9.844,0.59,0.084,19.554,0.032,-0.1768,-0.0874,0.0347,-0.1541,-0.0694,33,0.4,-1.93,3.52,0.9977,0.004,-0.0168,0.0308,15.155,2.044,540.342,14.808,1.991,526.248,325.123,44.577,11484.88,0
2025-05-30 17:27:40.299,0.167,-0.016,9.849,0.501,0.068,19.563,0.0256,0.0874,-0.0554,0.0264,0.0648,-0.057,33,0.17,-1.26,3.37,0.9978,0.0018,-0.011,0.0295,15.167,2.046,540.779,14.819,1.992,526.7,325.864,44.676,11511.215,0
2025-05-30 17:27:40.354,0.126,-0.014,9.86,0.592,0.092,19.569,-0.0426,-0.1065,-0.0107,-0.0358,-0.0878,-0.0155,33,0.3,-2.04,3.32,0.9977,0.0031,-0.0177,0.029,15.179,2.048,541.215,14.83,1.994,527.152,326.606,44.776,11537.572,0
2025-05-30 17:27:40.406,0.153,-0.007,9.864,0.521,0.131,19.576,0.0895,0.0107,0.1236,0.0768,0.0024,0.1095,33,0.49,-1.46,3.63,0.9977,0.0047,-0.0126,0.0318,15.191,2.052,541.652,14.842,1.996,527.603,327.348,44.876,11563.952,0
2025-05-30 17:27:40.458,0.172,-0.02,9.88,0.55,0.045,19.592,0.0,0.1172,0.1704,0.0076,0.1073,0.1642,33,0.05,-1.52,4.12,0.9976,0.0009,-0.0133,0.036,15.203,2.054,542.088,14.853,1.998,528.054,328.091,44.976,11590.354,0
2025-05-30 17:27:40.512,0.122,-0.04,9.864,0.423,0.011,19.578,-0.1001,-0.0511,0.049,-0.0895,-0.0337,0.0603,33,-0.03,-1.07,4.28,0.9976,0.0001,-0.0094,0.0374,15.212,2.053,542.524,14.864,1.999,528.505,328.834,45.076,11616.779,0
2025-05-30 17:27:40.567,0.14,-0.034,9.844,0.476,0.097,19.557,0.1214,0.1321,0.0,0.1002,0.1171,0.0058,33,0.45,-1.28,4.29,0.9975,0.0043,-0.011,0.0376,15.219,2.053,542.959,14.875,2.001,528.955,329.578,45.176,11643.227,0
2025-05-30 17:27:40.620,0.162,-0.04,9.867,0.542,0.085,19.579,0.13,0.0405,-0.0341,0.1269,0.0497,-0.0303,33,0.4,-1.54,4.22,0.9975,0.004,-0.0133,0.0369,15.23,2.056,543.394,14.886,2.003,529.404,330.322,45.276,11669.696,0
2025-05-30 17:27:40.680,0.126,-0.034,9.865,0.475,0.011,19.578,0.0107,-0.0213,0.0064,0.0222,-0.0126,0.0025,33,-0.06,-1.35,4.24,0.9976,-0.0001,-0.0118,0.037,15.24,2.056,543.828,14.898,2.004,529.853,331.067,45.376,11696.188,0
2025-05-30 17:27:40.734,0.158,-0.018,9.851,0.594,0.065,19.562,-0.0788,-0.0469,-0.0213,-0.0688,-0.0419,-0.0191,33,0.16,-1.86,4.17,0.9975,0.002,-0.0162,0.0365,15.251,2.056,544.262,14.909,2.006,530.302,331.812,45.476,11722.703,0
2025-05-30 17:27:40.788,0.106,-0.009,9.872,0.434,0.11,19.586,0.0469,0.0298,-0.0234,0.0352,0.0242,-0.0232,33,0.37,-1.23,4.11,0.9976,0.0036,-0.0106,0.0359,15.262,2.058,544.695,14.92,2.008,530.75,332.558,45.577,11749.24,0
2025-05-30 17:27:40.843,0.135,-0.031,9.878,0.516,0.003,19.59,-0.0447,0.0362,0.0256,-0.0369,0.0366,0.0205,33,-0.13,-1.54,4.17,0.9976,-0.0006,-0.0135,0.0365,15.27,2.059,545.129,14.931,2.009,531.198,333.305,45.677,11775.8,0
2025-05-30 17:27:40.898,0.133,-0.022,9.864,0.487,0.138,19.576,0.0746,0.0043,-0.0575,0.0633,0.0091,-0.0499,33,0.61,-1.38,4.02,0.9976,0.0058,-0.0119,0.0352,15.28,2.06,545.562,14.942,2.011,531.645,334.052,45.778,11802.382,0
2025-05-30 17:27:40.953,0.149,-0.016,9.862,0.57,0.072,19.573,0.0298,-0.0639,-0.066,0.0331,-0.0551,-0.0646,33,0.19,-1.78,3.85,0.9976,0.0022,-0.0155,0.0336,15.291,2.063,545.994,14.952,2.012,532.092,334.799,45.878,11828.986,0
2025-05-30 17:27:41.008,0.145,-0.025,9.867,0.494,0.009,19.58,-0.115,-0.0533,-0.1513,-0.1003,-0.0519,-0.1428,33,-0.12,-1.35,3.44,0.9978,-0.0007,-0.0119,0.03,15.302,2.063,546.426,14.963,2.014,532.538,335.548,45.979,11855.613,0
2025-05-30 17:27:41.059,0.133,-0.032,9.862,0.52,0.062,19.574,-0.0597,0.0043,-0.0639,-0.0638,0.0002,-0.072,33,0.23,-1.58,3.22,0.9978,0.0024,-0.0137,0.0282,15.312,2.062,546.858,14.974,2.016,532.984,336.296,46.08,11882.263,0
2025-05-30 17:27:41.112,0.14,-0.014,9.876,0.44,0.139,19.59,0.1087,-0.0213,0.0639,0.0913,-0.0176,0.0501,33,0.57,-1.06,3.36,0.9978,0.0053,-0.0092,0.0294,15.321,2.065,547.289,14.985,2.017,533.43,337.046,46.181,11908.935,0
2025-05-30 17:27:41.166,0.144,-0.018,9.864,0.538,0.047,19.575,-0.0767,-0.0383,-0.0362,-0.06,-0.0347,-0.0278,33,0.05,-1.62,3.29,0.9978,0.0009,-0.0141,0.0288,15.33,2.068,547.72,14.996,2.019,533.875,337.795,46.282,11935.628,0
2025-05-30 17:27:41.221,0.163,-0.023,9.864,0.563,0.178,19.574,0.1044,0.032,0.1704,0.0878,0.0269,0.1504,33,0.85,-1.65,3.7,0.9977,0.0079,-0.0141,0.0325,15.342,2.072,548.15,15.007,2.02,534.32,338.546,46.383,11962.344,0
2025-05-30 17:27:41.275,0.127,-0.025,9.867,0.486,0.078,19.58,-0.0213,0.0213,-0.0107,-0.0105,0.0234,0.0053,33,0.28,-1.41,3.73,0.9977,0.0029,-0.0122,0.0327,15.353,2.076,548.58,15.018,2.022,534.764,339.297,46.484,11989.082,0
2025-05-30 17:27:41.327,0.153,-0.018,9.838,0.592,0.062,19.549,0.0234,0.0213,0.0021,0.0199,0.0231,0.0023,33,0.15,-1.88,3.75,0.9976,0.0018,-0.0164,0.0328,15.365,2.077,549.008,15.029,2.024,535.208,340.048,46.585,12015.843,0
2025-05-30 17:27:41.385,0.142,-0.022,9.835,0.472,0.076,19.548,0.0064,0.0234,0.0447,0.0076,0.025,0.0403,33,0.25,-1.24,3.86,0.9977,0.0025,-0.0108,0.0337,15.376,2.079,549.436,15.039,2.025,535.651,340.8,46.686,12042.625,0
2025-05-30 17:27:41.437,0.147,-0.018,9.86,0.577,0.035,19.571,-0.081,-0.0107,0.0149,-0.0722,-0.0055,0.0173,33,-0.01,-1.83,3.91,0.9976,0.0004,-0.016,0.0342,15.387,2.079,549.863,15.05,2.027,536.094,341.553,46.788,12069.43,0
2025-05-30 17:27:41.492,0.144,-0.036,9.856,0.464,0.062,19.57,0.0234,0.0447,0.0,0.0138,0.0413,0.0015,33,0.25,-1.18,3.91,0.9977,0.0025,-0.0103,0.0342,15.397,2.08,550.291,15.061,2.029,536.537,342.306,46.889,12096.257,0
2025-05-30 17:27:41.545,0.171,-0.032,9.847,0.548,0.033,19.56,-0.0256,0.081,0.0064,-0.0217,0.0786,0.0057,33,0.06,-1.52,3.93,0.9976,0.001,-0.0132,0.0343,15.407,2.08,550.718,15.072,2.03,536.979,343.059,46.991,12123.105,0
2025-05-30 17:27:41.599,0.154,-0.014,9.849,0.583,0.115,19.56,-0.0597,-0.0426,-0.1023,-0.056,-0.0289,-0.0917,33,0.44,-1.82,3.65,0.9977,0.0043,-0.0157,0.032,15.42,2.082,551.144,15.083,2.032,537.42,343.813,47.092,12149.977,0
2025-05-30 17:27:41.654,0.142,-0.043,9.851,0.483,0.014,19.564,0.0149,0.0575,0.0469,0.0077,0.0504,0.0328,33,0.01,-1.31,3.76,0.9977,0.0005,-0.0114,0.0329,15.431,2.082,551.57,15.094,2.034,537.861,344.568,47.194,12176.869,0
2025-05-30 17:27:41.722,0.127,-0.022,9.84,0.572,0.096,19.55,-0.0469,-0.1172,0.0256,-0.0415,-0.0988,0.0261,33,0.37,-1.91,3.82,0.9976,0.0037,-0.0166,0.0334,15.442,2.083,551.995,15.105,2.035,538.302,345.323,47.296,12203.784,0
2025-05-30 17:27:41.760,0.136,-0.005,9.849,0.534,0.068,19.561,-0.0597,-0.1023,-0.0724,-0.058,-0.1004,-0.0628,33,0.11,-1.64,3.64,0.9977,0.0014,-0.0143,0.0318,15.454,2.085,552.42,15.116,2.037,538.742,346.079,47.397,12230.722,0
2025-05-30 17:27:41.815,0.147,-0.045,9.858,0.512,-0.062,19.571,-0.0959,-0.1108,-0.0788,-0.0922,-0.1082,-0.0774,33,-0.42,-1.44,3.43,0.9978,-0.0033,-0.0127,0.0299,15.465,2.083,552.845,15.127,2.038,539.182,346.836,47.499,12257.681,0
2025-05-30 17:27:41.868,0.151,-0.013,9.856,0.543,0.086,19.568,0.0533,-0.0128,0.0,0.0386,-0.0208,-0.0079,33,0.25,-1.61,3.39,0.9978,0.0026,-0.014,0.0297,15.476,2.081,553.27,15.138,2.039,539.621,347.592,47.601,12284.662,0
2025-05-30 17:27:41.925,0.136,-0.025,9.847,0.425,0.044,19.562,0.0469,0.0469,-0.0107,0.0459,0.0417,-0.0106,33,0.08,-1.0,3.37,0.9978,0.001,-0.0087,0.0294,15.485,2.082,553.694,15.148,2.041,540.06,348.35,47.703,12311.665,0
2025-05-30 17:27:41.975,0.149,-0.025,9.858,0.519,0.028,19.571,-0.081,0.0277,-0.0959,-0.0684,0.0307,-0.0875,33,-0.01,-1.48,3.12,0.9979,0.0002,-0.0129,0.0272,15.493,2.082,554.117,15.159,2.042,540.498,349.108,47.805,12338.69,0
2025-05-30 17:27:42.032,0.142,-0.027,9.86,0.525,0.142,19.572,0.0554,0.0128,0.0874,0.0429,0.0161,0.0697,33,0.66,-1.55,3.3,0.9978,0.0062,-0.0134,0.0289,15.503,2.084,554.541,15.17,2.043,540.936,349.866,47.908,12365.737,0
2025-05-30 17:27:42.084,0.153,-0.025,9.876,0.551,0.08,19.588,0.0746,-0.0277,0.0362,0.0713,-0.0217,0.0394,33,0.29,-1.64,3.43,0.9978,0.003,-0.0143,0.03,15.515,2.088,554.964,15.181,2.045,541.374,350.625,48.01,12392.806,0
2025-05-30 17:27:42.140,0.138,-0.011,9.871,0.433,0.11,19.585,0.0746,0.0192,0.0298,0.0741,0.0166,0.0306,33,0.38,-1.04,3.52,0.9978,0.0036,-0.009,0.0308,15.524,2.09,555.388,15.192,2.046,541.811,351.385,48.112,12419.896,0
2025-05-30 17:27:42.192,0.142,-0.022,9.858,0.503,0.047,19.571,-0.0469,0.0533,0.0021,-0.0349,0.0512,0.0048,33,0.08,-1.42,3.54,0.9978,0.0011,-0.0124,0.0309,15.532,2.092,555.81,15.202,2.048,542.247,352.145,48.215,12447.009,0
2025-05-30 17:27:42.248,0.135,-0.009,9.883,0.521,0.112,19.595,-0.0937,-0.0149,-0.0554,-0.088,-0.0067,-0.0496,33,0.39,-1.57,3.38,0.9978,0.0038,-0.0137,0.0296,15.542,2.094,556.233,15.213,2.049,542.684,352.906,48.317,12474.143,0
2025-05-30 17:27:42.300,0.127,-0.007,9.846,0.452,0.088,19.559,0.0831,-0.0383,0.0128,0.0659,-0.0336,0.0064,33,0.23,-1.21,3.41,0.9978,0.0024,-0.0105,0.0298,15.55,2.097,556.654,15.224,2.051,543.119,353.667,48.42,12501.299,0
2025-05-30 17:27:42.354,0.122,-0.034,9.856,0.544,0.042,19.567,0.0639,-0.0256,0.1023,0.064,-0.0248,0.0925,33,0.12,-1.78,3.68,0.9977,0.0016,-0.0155,0.0322,15.56,2.098,557.075,15.234,2.052,543.555,354.429,48.522,12528.477,0
2025-05-30 17:27:42.408,0.126,-0.02,9.872,0.454,0.037,19.586,-0.1023,-0.0021,-0.0511,-0.0858,-0.0028,-0.037,33,0.01,-1.23,3.57,0.9978,0.0004,-0.0107,0.0312,15.569,2.098,557.496,15.245,2.054,543.99,355.191,48.625,12555.676,0
2025-05-30 17:27:42.464,0.129,-0.038,9.864,0.548,0.05,19.575,-0.0107,-0.0043,-0.0298,-0.0183,-0.0026,-0.0307,33,0.19,-1.76,3.48,0.9977,0.0021,-0.0153,0.0304,15.578,2.098,557.916,15.255,2.055,544.424,355.954,48.728,12582.897,0
2025-05-30 17:27:42.516,0.136,0.023,9.876,0.515,0.159,19.588,-0.0426,-0.0703,-0.0149,-0.0403,-0.062,-0.0167,33,0.47,-1.53,3.42,0.9978,0.0045,-0.0132,0.0299,15.589,2.101,558.336,15.266,2.056,544.858,356.717,48.83,12610.141,0
2025-05-30 17:27:42.573,0.136,-0.04,9.835,0.516,0.024,19.547,0.0639,-0.0192,0.1087,0.0534,-0.0219,0.0959,33,0.05,-1.53,3.71,0.9977,0.0009,-0.0134,0.0324,15.6,2.104,558.755,15.276,2.058,545.292,357.481,48.933,12637.405,0
2025-05-30 17:27:42.624,0.14,-0.041,9.831,0.494,0.098,19.544,-0.0192,-0.0618,0.0362,-0.012,-0.0562,0.042,33,0.49,-1.38,3.81,0.9977,0.0047,-0.0119,0.0334,15.609,2.105,559.173,15.287,2.059,545.725,358.245,49.036,12664.691,0
2025-05-30 17:27:42.684,0.138,-0.031,9.849,0.555,-0.004,19.56,-0.0469,-0.0682,-0.1108,-0.0435,-0.0654,-0.0957,33,-0.17,-1.75,3.55,0.9977,-0.001,-0.0153,0.031,15.62,2.105,559.59,15.297,2.061,546.158,359.01,49.139,12691.999,0
2025-05-30 17:27:42.738,0.129,-0.04,9.847,0.466,0.032,19.561,-0.0405,0.0192,-0.0618,-0.0409,0.0123,-0.0654,33,0.09,-1.28,3.36,0.9978,0.0011,-0.0111,0.0293,15.63,2.104,560.008,15.307,2.062,546.59,359.775,49.242,12719.328,0
2025-05-30 17:27:42.790,0.153,-0.02,9.855,0.602,0.052,19.565,-0.0746,-0.0533,-0.0447,-0.0713,-0.0451,-0.047,33,0.1,-1.94,3.22,0.9978,0.0013,-0.0169,0.0281,15.641,2.104,560.425,15.318,2.064,547.022,360.541,49.346,12746.68,0
2025-05-30 17:27:42.847,0.181,-0.029,9.858,0.488,0.08,19.572,0.0256,0.115,-0.0639,0.0158,0.1006,-0.0624,33,0.31,-1.1,3.04,0.9979,0.003,-0.0096,0.0266,15.652,2.105,560.842,15.328,2.065,547.454,361.307,49.449,12774.053,0
2025-05-30 17:27:42.900,0.149,-0.032,9.887,0.541,0.03,19.599,-0.0256,0.0,-0.0149,-0.0215,0.0116,-0.0199,33,0.04,-1.6,2.98,0.9979,0.0007,-0.014,0.0261,15.662,2.106,561.259,15.339,2.066,547.885,362.074,49.552,12801.447,0
2025-05-30 17:27:42.955,0.133,0.0,9.851,0.461,0.166,19.564,0.0405,0.0447,0.0362,0.0342,0.043,0.0304,33,0.65,-1.23,3.06,0.9979,0.006,-0.0106,0.0268,15.672,2.108,561.676,15.349,2.067,548.315,362.842,49.656,12828.863,0
2025-05-30 17:27:43.006,0.129,-0.022,9.862,0.441,0.062,19.576,0.0107,0.1257,0.0192,0.0129,0.119,0.0201,33,0.17,-1.13,3.13,0.9979,0.0017,-0.0099,0.0274,15.679,2.112,562.092,15.36,2.069,548.746,363.61,49.759,12856.301,0
2025-05-30 17:27:43.063,0.108,-0.032,9.858,0.483,0.078,19.57,0.098,0.0575,-0.0298,0.0894,0.0652,-0.025,33,0.32,-1.51,3.06,0.9979,0.0032,-0.0131,0.0268,15.686,2.113,562.508,15.37,2.07,549.175,364.378,49.863,12883.76,0
2025-05-30 17:27:43.116,0.145,-0.022,9.856,0.508,-0.019,19.569,-0.0405,0.0703,-0.0639,-0.0276,0.0714,-0.0602,33,-0.31,-1.43,2.91,0.9979,-0.0024,-0.0126,0.0254,15.695,2.113,562.923,15.38,2.072,549.605,365.147,49.966,12911.24,0
2025-05-30 17:27:43.170,0.129,-0.011,9.844,0.494,0.085,19.556,-0.0064,-0.0107,0.0085,-0.0086,-0.0009,0.0015,33,0.24,-1.45,2.9,0.9979,0.0024,-0.0126,0.0253,15.704,2.113,563.337,15.39,2.073,550.034,365.917,50.07,12938.742,0
2025-05-30 17:27:43.224,0.149,-0.036,9.849,0.617,0.042,19.559,0.1214,-0.0874,-0.1193,0.1083,-0.0771,-0.1074,33,0.13,-2.05,2.6,0.9979,0.0016,-0.0179,0.0227,15.716,2.114,563.75,15.401,2.074,550.462,366.687,50.173,12966.266,0
2025-05-30 17:27:43.278,0.136,-0.005,9.871,0.52,0.125,19.583,0.0469,-0.0149,-0.0128,0.0529,-0.0196,-0.0224,33,0.44,-1.56,2.53,0.998,0.0041,-0.0135,0.0222,15.729,2.116,564.164,15.411,2.076,550.89,367.457,50.277,12993.811,0
2025-05-30 17:27:43.333,0.12,-0.02,9.849,0.42,0.001,19.563,-0.0724,0.0618,0.066,-0.06,0.0552,0.057,33,-0.2,-1.07,2.7,0.998,-0.0015,-0.0094,0.0236,15.737,2.117,564.578,15.421,2.077,551.318,368.229,50.381,13021.376,0
2025-05-30 17:27:43.387,0.153,-0.013,9.856,0.525,0.097,19.569,0.0618,-0.0064,0.032,0.0495,0.0013,0.0343,33,0.32,-1.49,2.79,0.9979,0.0031,-0.013,0.0244,15.745,2.118,564.991,15.431,2.078,551.745,369.0,50.485,13048.963,0
2025-05-30 17:27:43.442,0.127,-0.038,9.838,0.512,0.006,19.551,0.0639,-0.0852,0.1214,0.0624,-0.075,0.1125,33,-0.07,-1.56,3.13,0.9978,-0.0002,-0.0136,0.0273,15.755,2.118,565.403,15.442,2.079,552.172,369.772,50.589,13076.571,0
2025-05-30 17:27:43.494,0.151,0.007,9.883,0.508,0.157,19.596,0.017,0.0724,0.1555,0.0215,0.0593,0.151,33,0.56,-1.4,3.54,0.9977,0.0052,-0.0121,0.031,15.765,2.12,565.815,15.452,2.081,552.598,370.545,50.693,13104.201,0
2025-05-30 17:27:43.548,0.154,-0.022,9.853,0.585,0.055,19.564,0.0256,-0.0703,-0.0469,0.025,-0.0558,-0.0273,33,0.12,-1.83,3.48,0.9977,0.0016,-0.0159,0.0304,15.776,2.123,566.227,15.462,2.082,553.024,371.318,50.797,13131.853,0
2025-05-30 17:27:43.603,0.158,-0.025,9.856,0.503,0.042,19.57,-0.0767,-0.017,-0.0085,-0.0666,-0.0194,-0.0106,33,0.07,-1.33,3.44,0.9978,0.0009,-0.0116,0.0301,15.788,2.123,566.638,15.472,2.083,553.449,372.091,50.901,13159.525,0
2025-05-30 17:27:43.656,0.127,-0.013,9.846,0.52,0.111,19.557,-0.0554,0.0043,-0.0085,-0.0566,0.0035,-0.0089,33,0.4,-1.61,3.41,0.9978,0.0039,-0.0139,0.0298,15.797,2.125,567.049,15.482,2.085,553.874,372.866,51.005,13187.219,0
2025-05-30 17:27:43.710,0.153,0.005,9.842,0.497,-0.016,19.555,-0.1257,0.0,0.0724,-0.1189,0.0019,0.0641,33,-0.45,-1.33,3.6,0.9977,-0.0035,-0.0117,0.0314,15.807,2.126,567.458,15.493,2.086,554.299,373.64,51.11,13214.934,0
2025-05-30 17:27:43.763,0.149,-0.002,9.867,0.501,0.065,19.58,0.0,0.0447,-0.0234,-0.012,0.042,-0.0149,33,0.07,-1.37,3.55,0.9978,0.001,-0.012,0.031,15.816,2.125,567.868,15.503,2.087,554.723,374.415,51.214,13242.67,0
2025-05-30 17:27:43.817,0.151,-0.027,9.856,0.552,0.062,19.568,-0.049,0.081,-0.049,-0.0454,0.0786,-0.0458,33,0.2,-1.66,3.41,0.9978,0.0022,-0.0144,0.0298,15.827,2.126,568.278,15.513,2.088,555.147,375.191,51.319,13270.428,0
2025-05-30 17:27:43.873,0.135,-0.032,9.849,0.422,-0.002,19.564,-0.0575,0.0383,-0.0746,-0.0564,0.0439,-0.0719,33,-0.15,-0.99,3.21,0.9979,-0.001,-0.0087,0.028,15.835,2.125,568.687,15.523,2.09,555.57,375.967,51.423,13298.206,0
2025-05-30 17:27:43.925,0.145,-0.027,9.858,0.536,0.07,19.57,0.049,-0.049,0.0426,0.0383,-0.0381,0.031,33,0.25,-1.6,3.29,0.9978,0.0025,-0.0139,0.0288,15.843,2.125,569.096,15.533,2.091,555.993,376.744,51.528,13326.006,0
2025-05-30 17:27:43.977,0.153,-0.05,9.847,0.541,-0.066,19.559,-0.0362,-0.0107,0.1534,-0.0289,-0.0118,0.141,33,-0.42,-1.59,3.71,0.9977,-0.0032,-0.014,0.0323,15.854,2.123,569.504,15.543,2.092,556.416,377.521,51.632,13353.826,0
2025-05-30 17:27:44.034,0.133,-0.023,9.829,0.478,0.096,19.542,0.0937,0.0554,0.0298,0.0814,0.0502,0.0408,33,0.37,-1.33,3.81,0.9977,0.0036,-0.0115,0.0333,15.864,2.122,569.911,15.553,2.093,556.838,378.299,51.737,13381.668,0
2025-05-30 17:27:44.087,0.154,-0.02,9.88,0.531,0.008,19.592,-0.098,0.1087,-0.1087,-0.0802,0.1044,-0.0939,33,-0.16,-1.51,3.55,0.9977,-0.001,-0.0133,0.031,15.873,2.122,570.319,15.563,2.094,557.259,379.077,51.841,13409.531,0
2025-05-30 17:27:44.142,0.149,-0.048,9.838,0.568,0.097,19.549,0.0618,-0.0575,0.0234,0.0475,-0.0398,0.0115,33,0.53,-1.76,3.57,0.9977,0.0051,-0.0152,0.0312,15.885,2.122,570.726,15.574,2.095,557.68,379.855,51.946,13437.415,0
2025-05-30 17:27:44.196,0.131,-0.013,9.864,0.483,0.08,19.576,0.0213,-0.0107,-0.0746,0.0238,-0.012,-0.0661,33,0.22,-1.37,3.39,0.9978,0.0023,-0.0119,0.0296,15.895,2.125,571.132,15.584,2.095,558.101,380.635,52.051,13465.32,0
2025-05-30 17:27:44.253,0.142,-0.025,9.822,0.607,0.044,19.532,-0.0021,-0.0447,-0.1193,0.0004,-0.0399,-0.1142,33,0.08,-2.03,3.07,0.9978,0.0012,-0.0178,0.0268,15.906,2.126,571.538,15.594,2.096,558.521,381.414,52.156,13493.246,0
2025-05-30 17:27:44.304,0.144,-0.004,9.862,0.54,0.113,19.573,0.0192,-0.0447,-0.0213,0.0172,-0.0427,-0.0308,33,0.36,-1.63,2.97,0.9979,0.0035,-0.0142,0.026,15.919,2.127,571.943,15.604,2.097,558.941,382.195,52.261,13521.193,0
2025-05-30 17:27:44.359,0.144,-0.02,9.853,0.463,0.009,19.566,-0.017,0.0533,0.1065,-0.0137,0.0452,0.0926,33,-0.16,-1.18,3.25,0.9979,-0.0011,-0.0103,0.0284,15.928,2.128,572.349,15.614,2.098,559.361,382.975,52.366,13549.161,0
2025-05-30 17:27:44.412,0.129,-0.036,9.858,0.547,0.063,19.569,0.0,-0.0746,-0.1108,-0.0015,-0.061,-0.0906,33,0.25,-1.75,2.98,0.9979,0.0026,-0.0153,0.0261,15.938,2.127,572.754,15.624,2.099,559.78,383.757,52.471,13577.15,0
2025-05-30 17:27:44.467,0.136,-0.016,9.853,0.462,0.039,19.566,-0.0788,-0.0064,-0.017,-0.0712,-0.0103,-0.0246,33,-0.0,-1.21,2.91,0.9979,0.0003,-0.0106,0.0254,15.947,2.128,573.158,15.635,2.1,560.198,384.538,52.576,13605.16,0
2025-05-30 17:27:44.521,0.133,-0.027,9.856,0.564,0.095,19.567,0.0362,-0.0575,-0.0107,0.0254,-0.0512,-0.0122,33,0.39,-1.83,2.87,0.9979,0.0038,-0.0159,0.0251,15.956,2.129,573.563,15.645,2.101,560.616,385.32,52.681,13633.191,0
2025-05-30 17:27:44.574,0.151,-0.034,9.86,0.478,0.079,19.573,0.1364,0.0831,0.0639,0.1251,0.0712,0.0561,33,0.34,-1.23,3.04,0.9979,0.0032,-0.0107,0.0266,15.967,2.131,573.967,15.655,2.102,561.034,386.103,52.786,13661.243,0
2025-05-30 17:27:44.627,0.133,-0.065,9.851,0.544,-0.087,19.562,-0.13,-0.0852,0.0597,-0.1046,-0.068,0.0591,33,-0.45,-1.72,3.22,0.9978,-0.0035,-0.0151,0.0281,15.976,2.129,574.37,15.665,2.103,561.451,386.886,52.891,13689.315,0
2025-05-30 17:27:44.689,0.135,-0.031,9.831,0.49,0.032,19.544,0.0021,0.0511,0.1172,-0.0087,0.0408,0.1112,33,0.04,-1.39,3.52,0.9978,0.0008,-0.0121,0.0308,15.986,2.126,574.772,15.675,2.104,561.868,387.67,52.996,13717.409,0
2025-05-30 17:27:44.740,0.154,-0.014,9.835,0.568,0.104,19.546,-0.0256,0.0213,0.0,-0.024,0.0248,0.0109,33,0.37,-1.73,3.54,0.9977,0.0037,-0.015,0.031,15.996,2.127,575.174,15.685,2.105,562.285,388.454,53.101,13745.523,0
2025-05-30 17:27:44.795,0.115,-0.038,9.855,0.453,0.068,19.568,0.1023,-0.0149,-0.0788,0.0895,-0.0094,-0.07,33,0.3,-1.29,3.35,0.9978,0.0029,-0.0112,0.0293,16.006,2.129,575.576,15.695,2.105,562.701,389.239,53.207,13773.658,0
2025-05-30 17:27:44.848,0.147,-0.043,9.849,0.534,0.0,19.561,-0.0064,0.0575,-0.0107,0.0031,0.0524,-0.0168,33,-0.07,-1.57,3.32,0.9978,-0.0002,-0.0137,0.029,16.015,2.129,575.977,15.705,2.106,563.116,390.025,53.312,13801.814,0
2025-05-30 17:27:44.903,0.126,-0.047,9.856,0.418,0.066,19.57,0.0192,0.032,-0.0128,0.0175,0.0356,-0.0134,33,0.34,-1.02,3.27,0.9979,0.0032,-0.0089,0.0286,16.022,2.128,576.379,15.715,2.107,563.532,390.81,53.417,13829.991,0
2025-05-30 17:27:44.956,0.136,-0.023,9.855,0.516,0.036,19.567,-0.0533,0.0085,0.0469,-0.0463,0.0128,0.0407,33,0.02,-1.53,3.39,0.9978,0.0006,-0.0134,0.0296,16.03,2.128,576.78,15.725,2.108,563.946,391.597,53.523,13858.188,0
2025-05-30 17:27:45.009,0.158,0.011,9.846,0.533,0.203,19.557,0.0916,0.0554,0.0234,0.0777,0.0527,0.025,33,0.8,-1.51,3.45,0.9977,0.0074,-0.0129,0.0302,16.04,2.132,577.18,15.735,2.108,564.361,392.383,53.628,13886.406,0
2025-05-30 17:27:45.066,0.167,-0.022,9.883,0.592,0.061,19.594,-0.0426,-0.066,-0.0128,-0.0307,-0.0526,-0.0092,33,0.16,-1.8,3.44,0.9977,0.0019,-0.0156,0.03,16.052,2.137,577.581,15.745,2.109,564.775,393.171,53.733,13914.645,0
2025-05-30 17:27:45.119,0.131,-0.002,9.847,0.467,0.108,19.561,-0.0256,0.0021,0.0,-0.0262,-0.0018,-0.0011,33,0.32,-1.28,3.43,0.9978,0.0031,-0.0111,0.03,16.062,2.139,577.981,15.755,2.11,565.188,393.958,53.839,13942.904,0
2025-05-30 17:27:45.174,0.12,-0.04,9.838,0.524,-0.022,19.55,-0.0085,-0.0554,-0.0575,-0.0104,-0.0485,-0.0521,33,-0.22,-1.67,3.29,0.9978,-0.0015,-0.0147,0.0287,16.071,2.139,578.38,15.765,2.111,565.601,394.747,53.945,13971.185,0
2025-05-30 17:27:45.227,0.12,-0.034,9.853,0.494,0.04,19.565,-0.0469,-0.0703,-0.1364,-0.0433,-0.0666,-0.1281,33,0.11,-1.5,2.91,0.9979,0.0013,-0.0131,0.0255,16.08,2.137,578.778,15.775,2.112,566.014,395.535,54.05,13999.485,0
2025-05-30 17:27:45.281,0.149,-0.023,9.853,0.612,0.11,19.562,-0.0383,-0.0639,-0.0107,-0.039,-0.0626,-0.0226,33,0.46,-2.02,2.83,0.9978,0.0044,-0.0175,0.0248,16.092,2.139,579.177,15.785,2.113,566.426,396.325,54.156,14027.807,0
2025-05-30 17:27:45.337,0.124,-0.013,9.858,0.534,0.076,19.57,-0.0298,-0.0852,-0.0852,-0.0309,-0.0814,-0.0791,33,0.19,-1.71,2.61,0.9979,0.002,-0.0149,0.0228,16.104,2.141,579.575,15.795,2.114,566.838,397.114,54.261,14056.148,0
2025-05-30 17:27:45.390,0.135,-0.032,9.856,0.444,0.032,19.57,0.0021,0.0213,0.0085,-0.0013,0.0126,-0.0004,33,0.05,-1.12,2.61,0.998,0.0007,-0.0098,0.0228,16.113,2.142,579.973,15.805,2.115,567.25,397.905,54.367,14084.511,0
2025-05-30 17:27:45.444,0.145,-0.016,9.847,0.563,0.097,19.558,0.0298,-0.0447,0.1513,0.0266,-0.0374,0.1359,33,0.34,-1.75,3.0,0.9978,0.0034,-0.0152,0.0262,16.122,2.143,580.37,15.815,2.116,567.661,398.695,54.473,14112.894,0
2025-05-30 17:27:45.496,0.14,-0.016,9.865,0.487,0.087,19.578,0.066,-0.0405,0.0469,0.062,-0.0386,0.0556,33,0.28,-1.34,3.16,0.9979,0.0028,-0.0117,0.0277,16.132,2.145,580.767,15.825,2.117,568.072,399.487,54.579,14141.297,0
2025-05-30 17:27:45.548,0.145,-0.04,9.862,0.543,0.04,19.574,0.0959,0.049,0.032,0.0924,0.0418,0.0341,33,0.14,-1.63,3.27,0.9978,0.0017,-0.0142,0.0286,16.141,2.146,581.164,15.835,2.118,568.482,400.278,54.685,14169.721,0
2025-05-30 17:27:45.607,0.144,-0.011,9.871,0.473,0.179,19.583,0.0746,-0.0064,-0.1065,0.0762,-0.0,-0.0926,33,0.78,-1.24,2.99,0.9979,0.0071,-0.0107,0.0262,16.151,2.15,581.561,15.845,2.119,568.892,401.071,54.791,14198.165,0
2025-05-30 17:27:45.659,0.162,-0.016,9.846,0.586,0.076,19.557,-0.0469,-0.0874,0.0298,-0.0347,-0.0771,0.0174,33,0.22,-1.79,3.05,0.9978,0.0023,-0.0156,0.0267,16.161,2.154,581.957,15.855,2.12,569.301,401.863,54.897,14226.63,0
2025-05-30 17:27:45.714,0.154,-0.022,9.864,0.466,0.131,19.577,0.1641,0.0405,0.0746,0.1441,0.0303,0.0687,33,0.57,-1.14,3.25,0.9978,0.0052,-0.0098,0.0285,16.171,2.157,582.352,15.865,2.121,569.71,402.657,55.003,14255.115,0
2025-05-30 17:27:45.767,0.153,-0.023,9.856,0.533,0.057,19.569,-0.032,0.0085,0.0682,-0.0145,0.0123,0.068,33,0.15,-1.54,3.46,0.9978,0.0017,-0.0134,0.0302,16.18,2.16,582.748,15.875,2.122,570.119,403.45,55.109,14283.621,0
2025-05-30 17:27:45.822,0.136,-0.052,9.86,0.489,-0.084,19.573,-0.0469,-0.0234,-0.0043,-0.0437,-0.0183,0.0028,33,-0.51,-1.38,3.48,0.9978,-0.0041,-0.0122,0.0303,16.189,2.157,583.143,15.885,2.123,570.527,404.245,55.215,14312.147,0
2025-05-30 17:27:45.875,0.119,-0.016,9.865,0.485,0.046,19.578,-0.0043,-0.0298,0.0447,-0.0083,-0.0271,0.0404,33,0.04,-1.45,3.58,0.9977,0.0007,-0.0127,0.0313,16.197,2.154,583.537,15.895,2.124,570.935,405.039,55.321,14340.694,0
2025-05-30 17:27:45.929,0.144,-0.034,9.831,0.539,0.115,19.543,0.0341,0.0831,0.0724,0.0297,0.0736,0.069,33,0.55,-1.62,3.77,0.9977,0.0052,-0.014,0.033,16.207,2.155,583.931,15.905,2.125,571.342,405.835,55.427,14369.262,0
2025-05-30 17:27:45.984,0.138,-0.02,9.858,0.469,0.055,19.572,0.0383,0.0597,0.0469,0.0374,0.0626,0.0489,33,0.12,-1.24,3.92,0.9977,0.0014,-0.0108,0.0343,16.216,2.158,584.324,15.914,2.126,571.749,406.63,55.534,14397.85,0
2025-05-30 17:27:46.038,0.158,-0.005,9.844,0.562,0.076,19.555,-0.0852,0.0234,-0.017,-0.0731,0.0289,-0.0106,33,0.15,-1.68,3.89,0.9976,0.0018,-0.0146,0.034,16.225,2.159,584.716,15.924,2.127,572.156,407.427,55.64,14426.457,0
2025-05-30 17:27:46.091,0.136,-0.02,9.858,0.442,0.074,19.572,-0.0234,0.0064,0.0277,-0.0285,0.0102,0.0237,33,0.22,-1.1,3.95,0.9977,0.0023,-0.0095,0.0345,16.234,2.16,585.109,15.934,2.128,572.562,408.223,55.746,14455.085,0
2025-05-30 17:27:46.145,0.153,-0.031,9.855,0.53,0.021,19.567,-0.0554,0.0533,0.0149,-0.0528,0.0505,0.0156,33,-0.02,-1.52,4.0,0.9976,0.0003,-0.0133,0.0349,16.242,2.16,585.501,15.944,2.129,572.968,409.02,55.853,14483.733,0
2025-05-30 17:27:46.199,0.153,-0.047,9.851,0.568,0.162,19.561,0.1981,0.0533,0.0469,0.1729,0.0546,0.0436,33,0.9,-1.74,4.11,0.9975,0.0084,-0.0149,0.036,16.253,2.163,585.893,15.953,2.13,573.373,409.818,55.959,14512.402,0
2025-05-30 17:27:46.253,0.136,-0.022,9.858,0.55,0.107,19.569,0.0085,-0.0788,0.0234,0.0249,-0.0639,0.0253,33,0.43,-1.73,4.19,0.9975,0.0043,-0.015,0.0367,16.265,2.167,586.285,15.963,2.132,573.778,410.616,56.066,14541.091,0
2025-05-30 17:27:46.308,0.133,-0.041,9.838,0.468,0.055,19.552,0.1023,0.049,0.0277,0.0944,0.0393,0.0273,33,0.24,-1.27,4.29,0.9975,0.0025,-0.011,0.0375,16.274,2.169,586.675,15.973,2.133,574.183,411.415,56.173,14569.8,0
2025-05-30 17:27:46.361,0.147,-0.034,9.86,0.553,-0.007,19.571,-0.0831,0.0383,-0.0724,-0.0655,0.04,-0.0627,33,-0.17,-1.68,4.11,0.9976,-0.0009,-0.0148,0.0359,16.283,2.169,587.066,15.983,2.134,574.587,412.214,56.279,14598.529,0
2025-05-30 17:27:46.414,0.162,-0.025,9.849,0.56,0.071,19.561,-0.0533,-0.0234,0.0383,-0.0546,-0.0155,0.0281,33,0.24,-1.64,4.18,0.9975,0.0026,-0.0143,0.0365,16.295,2.168,587.456,15.993,2.135,574.99,413.014,56.386,14627.279,0
2025-05-30 17:27:46.472,0.129,-0.022,9.869,0.416,0.002,19.583,-0.1129,0.0383,-0.0128,-0.1072,0.0345,-0.0089,33,-0.19,-0.99,4.15,0.9976,-0.0013,-0.0087,0.0363,16.303,2.168,587.846,16.003,2.136,575.394,413.814,56.493,14656.049,0
2025-05-30 17:27:46.524,0.144,-0.016,9.842,0.514,0.027,19.555,-0.0767,-0.0192,0.032,-0.0799,-0.0122,0.0277,33,-0.07,-1.47,4.23,0.9975,-0.0001,-0.0129,0.0369,16.31,2.166,588.236,16.012,2.137,575.797,414.614,56.6,14684.839,0
2025-05-30 17:27:46.575,0.142,-0.018,9.844,0.549,0.088,19.555,-0.0703,-0.0511,-0.032,-0.0714,-0.0457,-0.0262,33,0.29,-1.69,4.14,0.9975,0.0031,-0.0147,0.0362,16.32,2.167,588.624,16.022,2.138,576.199,415.415,56.707,14713.648,0
2025-05-30 17:27:46.635,0.154,-0.023,9.844,0.463,-0.002,19.558,-0.017,0.0767,0.1065,-0.0226,0.066,0.0931,33,-0.2,-1.12,4.41,0.9975,-0.0014,-0.0098,0.0385,16.329,2.167,589.013,16.032,2.139,576.601,416.217,56.814,14742.479,0
2025-05-30 17:27:46.691,0.169,-0.025,9.828,0.555,0.076,19.54,0.0597,0.0,-0.0085,0.0513,0.0082,0.0014,33,0.27,-1.57,4.41,0.9975,0.0028,-0.0136,0.0386,16.338,2.167,589.4,16.041,2.14,577.003,417.019,56.921,14771.329,0
2025-05-30 17:27:46.743,0.127,-0.013,9.858,0.442,0.059,19.572,-0.0469,-0.0618,-0.0383,-0.0372,-0.0532,-0.0346,33,0.1,-1.15,4.31,0.9976,0.0012,-0.01,0.0377,16.347,2.168,589.787,16.051,2.141,577.404,417.822,57.028,14800.199,0
2025-05-30 17:27:46.798,0.154,-0.032,9.858,0.528,0.073,19.57,0.0618,0.0916,-0.0085,0.0518,0.0787,-0.0113,33,0.29,-1.5,4.28,0.9975,0.0031,-0.013,0.0374,16.354,2.169,590.175,16.061,2.142,577.805,418.625,57.135,14829.09,0
2025-05-30 17:27:46.853,0.136,-0.022,9.851,0.503,0.023,19.564,0.0767,-0.0192,0.0064,0.0741,-0.0078,0.0044,33,-0.06,-1.45,4.3,0.9975,-0.0001,-0.0127,0.0376,16.364,2.169,590.562,16.07,2.143,578.206,419.428,57.242,14858.0,0
2025-05-30 17:27:46.906,0.151,0.009,9.849,0.546,0.135,19.561,-0.0405,-0.0107,-0.0895,-0.0291,-0.0088,-0.0803,33,0.41,-1.62,4.06,0.9976,0.0041,-0.0141,0.0355,16.374,2.171,590.949,16.08,2.143,578.606,420.232,57.349,14886.931,0
2025-05-30 17:27:46.960,0.145,-0.027,9.833,0.478,-0.002,19.546,-0.0149,0.0703,0.0149,-0.0164,0.064,0.0052,33,-0.18,-1.26,4.09,0.9976,-0.0011,-0.011,0.0357,16.383,2.172,591.335,16.089,2.144,579.005,421.037,57.456,14915.881,0
2025-05-30 17:27:47.016,0.144,-0.022,9.86,0.549,0.093,19.571,0.0234,-0.0447,-0.017,0.0193,-0.0323,-0.015,33,0.34,-1.68,4.04,0.9976,0.0035,-0.0146,0.0353,16.392,2.172,591.72,16.099,2.145,579.405,421.842,57.564,14944.852,0
2025-05-30 17:27:47.069,0.131,-0.014,9.849,0.475,0.051,19.562,-0.0213,-0.0597,-0.0618,-0.0174,-0.0554,-0.0573,33,0.06,-1.32,3.88,0.9977,0.0009,-0.0115,0.0339,16.401,2.174,592.106,16.109,2.146,579.803,422.647,57.671,14973.842,0
2025-05-30 17:27:47.122,0.153,-0.018,9.865,0.53,0.064,19.578,-0.0767,0.1172,0.0618,-0.0709,0.1015,0.0497,33,0.15,-1.52,4.01,0.9976,0.0018,-0.0132,0.0351,16.41,2.175,592.491,16.118,2.147,580.202,423.453,57.778,15002.852,0
2025-05-30 17:27:47.175,0.149,-0.018,9.851,0.581,0.132,19.561,-0.0256,-0.0213,-0.0149,-0.0302,-0.0075,-0.0086,33,0.55,-1.84,3.97,0.9976,0.0054,-0.0159,0.0348,16.421,2.177,592.876,16.128,2.148,580.6,424.259,57.886,15031.882,0
2025-05-30 17:27:47.227,0.135,-0.025,9.856,0.475,0.089,19.569,0.081,0.0533,-0.0021,0.0697,0.0488,-0.003,33,0.34,-1.3,3.98,0.9976,0.0034,-0.0113,0.0348,16.431,2.181,593.261,16.137,2.149,580.998,425.066,57.993,15060.932,0
2025-05-30 17:27:47.282,0.147,-0.018,9.833,0.564,0.115,19.544,0.1364,0.0192,0.0021,0.1296,0.0237,0.0014,33,0.46,-1.75,3.99,0.9976,0.0045,-0.0151,0.0349,16.441,2.184,593.644,16.147,2.15,581.395,425.874,58.101,15090.001,0
2025-05-30 17:27:47.336,0.145,-0.014,9.856,0.508,0.043,19.569,-0.0256,-0.0362,0.0383,-0.0102,-0.0287,0.0345,33,0.01,-1.43,4.1,0.9976,0.0006,-0.0125,0.0358,16.451,2.185,594.028,16.156,2.151,581.792,426.681,58.208,15119.091,0
2025-05-30 17:27:47.391,0.147,-0.018,9.855,0.515,0.163,19.566,0.0874,0.098,-0.0724,0.0775,0.0869,-0.0619,33,0.74,-1.46,3.91,0.9976,0.0069,-0.0126,0.0342,16.46,2.188,594.411,16.166,2.153,582.188,427.49,58.316,15148.2,0
2025-05-30 17:27:47.444,0.14,-0.013,9.862,0.501,0.121,19.574,0.1044,0.0234,0.0298,0.1016,0.0313,0.0205,33,0.46,-1.42,3.98,0.9976,0.0044,-0.0123,0.0348,16.469,2.193,594.794,16.176,2.154,582.584,428.298,58.423,15177.329,0
2025-05-30 17:27:47.498,0.142,-0.009,9.842,0.551,0.041,19.553,0.0,-0.0128,0.0618,0.01,-0.0068,0.0575,33,-0.03,-1.71,4.16,0.9975,0.0003,-0.0149,0.0363,16.479,2.195,595.177,16.185,2.155,582.98,429.108,58.531,15206.479,0
2025-05-30 17:27:47.552,0.133,-0.005,9.864,0.491,0.061,19.576,-0.1385,-0.0192,0.0788,-0.1237,-0.0164,0.0765,33,0.07,-1.41,4.36,0.9975,0.0011,-0.0123,0.0382,16.489,2.195,595.559,16.195,2.156,583.375,429.918,58.639,15235.647,0
2025-05-30 17:27:47.607,0.145,-0.038,9.81,0.607,0.041,19.519,-0.0128,-0.0192,0.0511,-0.024,-0.0173,0.0535,33,0.14,-2.01,4.51,0.9974,0.0019,-0.0175,0.0395,16.5,2.196,595.94,16.205,2.158,583.77,430.728,58.747,15264.836,0
2025-05-30 17:27:47.663,0.145,-0.016,9.858,0.531,0.111,19.57,0.0703,-0.0469,-0.0298,0.0608,-0.0424,-0.0217,33,0.42,-1.57,4.45,0.9975,0.0042,-0.0136,0.0389,16.511,2.197,596.32,16.214,2.159,584.164,431.538,58.855,15294.044,0
2025-05-30 17:27:47.714,0.133,0.002,9.86,0.445,0.058,19.574,-0.0256,0.0,-0.0021,-0.017,-0.0027,-0.0043,33,0.01,-1.14,4.44,0.9975,0.0005,-0.0099,0.0388,16.519,2.199,596.701,16.224,2.16,584.558,432.35,58.963,15323.271,0
2025-05-30 17:27:47.769,0.158,-0.034,9.855,0.546,0.036,19.567,-0.0192,0.0426,0.0107,-0.0191,0.0396,0.009,33,0.09,-1.58,4.47,0.9975,0.0013,-0.0138,0.039,16.528,2.2,597.082,16.233,2.161,584.952,433.161,59.071,15352.52,0
2025-05-30 17:27:47.823,0.145,-0.04,9.855,0.458,0.027,19.568,-0.0277,-0.0575,-0.0959,-0.0269,-0.0462,-0.0856,33,0.06,-1.14,4.22,0.9976,0.0009,-0.01,0.0369,16.536,2.199,597.463,16.243,2.163,585.345,433.973,59.179,15381.787,0
2025-05-30 17:27:47.879,0.144,-0.022,9.842,0.573,0.095,19.553,0.0469,-0.0511,0.0341,0.0394,-0.0491,0.0219,33,0.36,-1.82,4.28,0.9975,0.0038,-0.0158,0.0374,16.545,2.2,597.842,16.253,2.164,585.738,434.786,59.287,15411.074,0
2025-05-30 17:27:47.932,0.147,-0.014,9.856,0.532,0.066,19.569,0.0043,-0.098,0.0405,0.0077,-0.0915,0.0384,33,0.15,-1.56,4.39,0.9975,0.0018,-0.0136,0.0384,16.556,2.202,598.221,16.262,2.165,586.131,435.599,59.395,15440.381,0
2025-05-30 17:27:47.986,0.144,-0.014,9.865,0.503,0.146,19.578,-0.0256,-0.0192,-0.0128,-0.0224,-0.0248,-0.0079,33,0.61,-1.41,4.36,0.9975,0.0058,-0.0121,0.0381,16.566,2.205,598.601,16.272,2.166,586.523,436.413,59.504,15469.707,0
2025-05-30 17:27:48.040,0.147,-0.014,9.86,0.495,0.097,19.573,0.1023,0.1023,0.0107,0.0897,0.0911,0.0086,33,0.33,-1.35,4.4,0.9975,0.0033,-0.0116,0.0385,16.574,2.209,598.98,16.281,2.168,586.915,437.227,59.612,15499.053,0
2025-05-30 17:27:48.093,0.135,-0.016,9.851,0.576,0.054,19.561,0.032,-0.049,-0.0064,0.0376,-0.0334,-0.0051,33,0.08,-1.89,4.39,0.9974,0.0014,-0.0165,0.0384,16.584,2.21,599.358,16.291,2.169,587.306,438.041,59.721,15528.418,0
2025-05-30 17:27:48.149,0.126,-0.02,9.856,0.447,0.147,19.569,0.1619,0.0597,0.0937,0.1494,0.0519,0.0837,33,0.65,-1.19,4.63,0.9974,0.0061,-0.0102,0.0405,16.593,2.213,599.736,16.301,2.17,587.697,438.856,59.829,15557.803,0
2025-05-30 17:27:48.203,0.144,-0.027,9.849,0.518,0.047,19.562,-0.0447,-0.0021,-0.0447,-0.0254,0.0048,-0.0321,33,0.11,-1.5,4.55,0.9974,0.0015,-0.0131,0.0398,16.601,2.216,600.114,16.31,2.172,588.087,439.672,59.938,15587.207,0
2025-05-30 17:27:48.254,0.153,-0.007,9.847,0.58,0.173,19.558,0.0405,-0.0298,-0.0533,0.0338,-0.0248,-0.0513,33,0.73,-1.81,4.39,0.9974,0.007,-0.0156,0.0384,16.611,2.219,600.491,16.32,2.173,588.478,440.488,60.046,15616.631,0
2025-05-30 17:27:48.309,0.124,-0.048,9.867,0.493,0.02,19.58,-0.0618,0.0213,0.115,-0.0523,0.0183,0.0982,33,0.08,-1.47,4.68,0.9974,0.0012,-0.0128,0.0409,16.622,2.221,600.868,16.329,2.175,588.867,441.304,60.155,15646.074,0
2025-05-30 17:27:48.363,0.144,-0.034,9.851,0.63,0.027,19.56,-0.1491,-0.098,0.0831,-0.1396,-0.0848,0.0844,33,0.04,-2.15,4.91,0.9972,0.0011,-0.0188,0.0429,16.633,2.22,601.244,16.339,2.176,589.257,442.121,60.264,15675.537,0
2025-05-30 17:27:48.416,0.14,-0.013,9.846,0.489,0.119,19.558,0.1087,0.1087,0.0746,0.0837,0.0909,0.0754,33,0.45,-1.35,5.13,0.9972,0.0044,-0.0116,0.0448,16.644,2.222,601.62,16.348,2.178,589.646,442.939,60.373,15705.02,0
2025-05-30 17:27:48.469,0.14,-0.041,9.853,0.554,0.021,19.564,0.0362,-0.0746,-0.0639,0.0409,-0.0565,-0.0502,33,0.04,-1.73,5.0,0.9972,0.001,-0.0151,0.0437,16.654,2.223,601.996,16.358,2.179,590.034,443.757,60.482,15734.521,0
2025-05-30 17:27:48.524,0.14,-0.002,9.869,0.508,0.145,19.581,0.017,-0.0341,-0.0383,0.0193,-0.0348,-0.0397,33,0.53,-1.46,4.87,0.9973,0.0052,-0.0126,0.0426,16.664,2.225,602.371,16.368,2.18,590.423,444.575,60.591,15764.043,0
2025-05-30 17:27:48.578,0.127,-0.009,9.856,0.473,0.008,19.569,-0.0767,0.0277,-0.0426,-0.0672,0.023,-0.0425,33,-0.22,-1.33,4.76,0.9974,-0.0015,-0.0117,0.0416,16.672,2.226,602.747,16.377,2.182,590.81,445.394,60.7,15793.583,0
2025-05-30 17:27:48.633,0.138,-0.052,9.822,0.53,0.086,19.534,0.1023,0.017,0.0298,0.0852,0.0192,0.0224,33,0.49,-1.6,4.81,0.9973,0.0048,-0.0138,0.0421,16.68,2.226,603.121,16.387,2.183,591.198,446.213,60.809,15823.143,0
2025-05-30 17:27:48.693,0.138,-0.038,9.881,0.537,-0.007,19.593,-0.0383,-0.0831,0.0554,-0.0261,-0.0713,0.0519,33,-0.14,-1.65,4.98,0.9973,-0.0006,-0.0144,0.0435,16.69,2.226,603.495,16.397,2.185,591.585,447.033,60.918,15852.722,0
2025-05-30 17:27:48.746,0.126,-0.047,9.856,0.439,0.044,19.57,-0.0043,0.032,0.0341,-0.0066,0.0232,0.0357,33,0.21,-1.15,5.07,0.9973,0.0023,-0.0099,0.0443,16.698,2.225,603.869,16.406,2.186,591.972,447.853,61.028,15882.32,0
2025-05-30 17:27:48.801,0.127,-0.038,9.822,0.529,-0.005,19.534,-0.0554,0.0043,0.0383,-0.0506,0.0077,0.0379,33,-0.13,-1.66,5.18,0.9972,-0.0005,-0.0146,0.0453,16.705,2.224,604.242,16.416,2.187,592.358,448.674,61.137,15911.938,0
2025-05-30 17:27:48.856,0.14,-0.002,9.851,0.517,0.084,19.563,-0.0852,-0.0192,-0.0618,-0.0819,-0.0149,-0.052,33,0.18,-1.52,5.02,0.9973,0.0021,-0.0132,0.0439,16.714,2.224,604.614,16.425,2.188,592.744,449.495,61.246,15941.575,0
2025-05-30 17:27:48.911,0.136,-0.034,9.837,0.437,-0.058,19.55,-0.0447,0.0703,-0.0298,-0.0486,0.0634,-0.0322,33,-0.47,-1.07,4.94,0.9973,-0.0037,-0.0095,0.0431,16.722,2.222,604.986,16.434,2.189,593.129,450.317,61.356,15971.231,0
2025-05-30 17:27:48.964,0.167,-0.022,9.862,0.487,0.039,19.575,0.032,0.0959,-0.049,0.0238,0.0942,-0.0475,33,0.03,-1.18,4.79,0.9974,0.0007,-0.0103,0.0419,16.728,2.22,605.359,16.444,2.19,593.514,451.139,61.465,16000.907,0
2025-05-30 17:27:49.017,0.124,-0.011,9.847,0.508,0.114,19.559,-0.0128,0.0,-0.017,-0.0092,0.011,-0.0203,33,0.41,-1.56,4.72,0.9974,0.0041,-0.0134,0.0413,16.736,2.221,605.731,16.453,2.191,593.899,451.962,61.575,16030.603,0
2025-05-30 17:27:49.071,0.158,-0.022,9.872,0.598,0.036,19.583,0.066,-0.0767,0.0852,0.0584,-0.0664,0.0745,33,0.01,-1.88,4.95,0.9972,0.0008,-0.0164,0.0433,16.747,2.223,606.103,16.462,2.192,594.283,452.785,61.685,16060.316,0
2025-05-30 17:27:49.127,0.138,-0.038,9.86,0.423,0.084,19.574,0.0916,0.1406,0.0682,0.0882,0.1215,0.0686,33,0.39,-0.98,5.15,0.9973,0.0038,-0.0084,0.045,16.756,2.224,606.474,16.472,2.193,594.667,453.609,61.794,16090.05,0
2025-05-30 17:27:49.182,0.136,-0.014,9.855,0.571,0.049,19.565,-0.0788,-0.1427,0.0511,-0.0622,-0.1148,0.0527,33,0.05,-1.86,5.3,0.9971,0.0011,-0.0162,0.0463,16.764,2.225,606.846,16.481,2.194,595.051,454.433,61.904,16119.803,0
2025-05-30 17:27:49.234,0.119,-0.027,9.855,0.466,0.069,19.568,0.0277,-0.0064,-0.0128,0.0186,-0.0157,-0.0064,33,0.24,-1.35,5.28,0.9972,0.0026,-0.0117,0.0461,16.773,2.225,607.216,16.49,2.195,595.434,455.257,62.014,16149.574,0
2025-05-30 17:27:49.288,0.135,-0.011,9.855,0.57,0.124,19.565,0.0511,0.0213,0.049,0.0478,0.0192,0.0433,33,0.46,-1.86,5.4,0.9971,0.0048,-0.016,0.0472,16.782,2.228,607.586,16.499,2.196,595.817,456.082,62.124,16179.365,0
2025-05-30 17:27:49.340,0.122,-0.032,9.847,0.439,0.037,19.561,-0.0234,0.0852,-0.0043,-0.0164,0.0802,0.0003,33,0.08,-1.16,5.41,0.9971,0.0012,-0.0101,0.0473,16.79,2.23,607.956,16.509,2.198,596.199,456.908,62.233,16209.175,0
2025-05-30 17:27:49.396,0.119,-0.023,9.855,0.526,0.091,19.566,0.0085,-0.017,0.0426,0.0059,-0.0058,0.0382,33,0.35,-1.69,5.51,0.997,0.0037,-0.0147,0.0482,16.798,2.231,608.325,16.518,2.199,596.581,457.733,62.343,16239.004,0
2025-05-30 17:27:49.449,0.16,-0.029,9.88,0.509,-0.005,19.593,0.0,0.0469,0.0469,0.0005,0.0432,0.0458,33,-0.19,-1.36,5.66,0.997,-0.001,-0.0119,0.0494,16.807,2.231,608.695,16.527,2.2,596.963,458.56,62.453,16268.853,0
2025-05-30 17:27:49.507,0.16,-0.043,9.878,0.56,0.041,19.59,-0.017,0.0362,0.0575,-0.0154,0.0385,0.0562,33,0.17,-1.65,5.81,0.9969,0.0022,-0.0144,0.0508,16.817,2.23,609.064,16.536,2.201,597.344,459.387,62.563,16298.72,0
2025-05-30 17:27:49.560,0.131,-0.027,9.88,0.426,0.049,19.594,-0.0149,0.0107,-0.0575,-0.0151,0.015,-0.0463,33,0.12,-1.04,5.68,0.997,0.0015,-0.009,0.0496,16.825,2.23,609.434,16.545,2.202,597.726,460.214,62.673,16328.606,0
2025-05-30 17:27:49.612,0.145,-0.014,9.871,0.521,0.11,19.583,0.0618,0.0298,0.0447,0.054,0.0299,0.0354,33,0.4,-1.51,5.77,0.9969,0.0042,-0.013,0.0505,16.831,2.231,609.803,16.554,2.202,598.106,461.042,62.784,16358.512,0
2025-05-30 17:27:49.666,0.122,-0.009,9.872,0.35,0.022,19.588,-0.0469,0.1896,0.0149,-0.0369,0.1752,0.0168,33,-0.14,-0.64,5.83,0.997,-0.0009,-0.0057,0.051,16.836,2.232,610.172,16.563,2.203,598.486,461.87,62.894,16388.436,0
2025-05-30 17:27:49.718,0.124,-0.027,9.872,0.445,0.059,19.586,0.0447,-0.0256,-0.0277,0.0365,-0.0039,-0.0234,33,0.18,-1.19,5.76,0.997,0.0021,-0.0103,0.0504,16.839,2.232,610.54,16.572,2.204,598.866,462.698,63.004,16418.379,0
2025-05-30 17:27:49.774,0.158,-0.036,9.849,0.595,0.006,19.56,-0.0703,-0.0469,0.0298,-0.0597,-0.041,0.0243,33,-0.08,-1.87,5.83,0.9969,0.0001,-0.0164,0.051,16.848,2.231,610.907,16.581,2.205,599.246,463.527,63.114,16448.342,0
2025-05-30 17:27:49.828,0.133,-0.007,9.872,0.485,0.104,19.585,0.0192,0.0298,0.0213,0.0112,0.0243,0.0214,33,0.33,-1.37,5.88,0.9969,0.0035,-0.0118,0.0514,16.859,2.232,611.274,16.59,2.206,599.625,464.357,63.225,16478.322,0
2025-05-30 17:27:49.881,0.138,-0.027,9.865,0.571,-0.014,19.576,-0.0469,-0.0533,-0.0043,-0.0412,-0.0439,-0.0019,33,-0.25,-1.84,5.89,0.9969,-0.0013,-0.0162,0.0514,16.868,2.232,611.64,16.599,2.207,600.004,465.187,63.335,16508.322,0
2025-05-30 17:27:49.935,0.144,-0.02,9.858,0.458,0.099,19.572,0.0618,0.1449,-0.0383,0.0514,0.1276,-0.0349,33,0.37,-1.15,5.78,0.997,0.0038,-0.0099,0.0505,16.877,2.232,612.007,16.608,2.208,600.383,466.017,63.445,16538.342,0
2025-05-30 17:27:49.989,0.122,-0.005,9.824,0.544,0.049,19.535,-0.0874,-0.049,-0.0213,-0.0736,-0.0298,-0.0229,33,-0.01,-1.78,5.72,0.9969,0.0007,-0.0156,0.05,16.885,2.234,612.371,16.616,2.209,600.761,466.848,63.556,16568.379,0
2025-05-30 17:27:50.043,0.144,-0.004,9.846,0.52,0.118,19.558,-0.0107,-0.0341,-0.0256,-0.0171,-0.0321,-0.0255,33,0.39,-1.51,5.63,0.997,0.004,-0.013,0.0493,16.895,2.236,612.735,16.625,2.21,601.138,467.679,63.666,16598.436,0
2025-05-30 17:27:50.096,0.126,-0.025,9.846,0.447,-0.049,19.559,-0.1257,0.0405,-0.0405,-0.1149,0.0348,-0.0392,33,-0.47,-1.19,5.53,0.9971,-0.0036,-0.0106,0.0483,16.902,2.235,613.099,16.634,2.21,601.515,468.511,63.777,16628.512,0
2025-05-30 17:27:50.152,0.131,-0.018,9.844,0.488,0.043,19.557,0.0,-0.0064,0.0043,-0.0116,-0.0007,-0.0003,33,0.04,-1.4,5.52,0.9971,0.0009,-0.0122,0.0482,16.908,2.233,613.463,16.643,2.211,601.892,469.343,63.887,16658.605,0
2025-05-30 17:27:50.206,0.138,-0.057,9.838,0.596,-0.024,19.548,0.0341,-0.032,-0.0362,0.0294,-0.0273,-0.0328,33,-0.13,-1.99,5.43,0.997,-0.0003,-0.0174,0.0475,16.919,2.231,613.826,16.652,2.212,602.269,470.176,63.998,16688.719,0
2025-05-30 17:27:50.259,0.145,-0.013,9.837,0.526,0.094,19.549,0.0213,0.0085,0.0298,0.022,0.0065,0.0234,33,0.3,-1.54,5.49,0.9971,0.0033,-0.0133,0.048,16.93,2.231,614.189,16.66,2.212,602.645,471.009,64.108,16718.852,0
2025-05-30 17:27:50.313,0.153,-0.036,9.853,0.58,-0.085,19.563,-0.1427,-0.0575,-0.1001,-0.1264,-0.0496,-0.088,33,-0.61,-1.81,5.25,0.9971,-0.0046,-0.016,0.0458,16.94,2.229,614.552,16.669,2.213,603.02,471.842,64.219,16749.002,0
2025-05-30 17:27:50.367,0.154,-0.048,9.872,0.577,-0.004,19.584,0.0149,-0.0575,-0.0192,0.0007,-0.0552,-0.0262,33,-0.07,-1.78,5.16,0.9972,0.0001,-0.0156,0.0451,16.952,2.224,614.915,16.678,2.213,603.396,472.676,64.33,16779.172,0
2025-05-30 17:27:50.422,0.162,-0.002,9.874,0.53,0.172,19.586,0.0916,0.0447,0.1001,0.0824,0.0363,0.0873,33,0.69,-1.46,5.4,0.9971,0.0067,-0.0125,0.0473,16.963,2.226,615.278,16.687,2.214,603.771,473.511,64.44,16809.361,0
2025-05-30 17:27:50.475,0.124,-0.011,9.847,0.491,0.07,19.56,0.0,-0.0298,-0.049,0.0081,-0.0216,-0.0356,33,0.15,-1.46,5.31,0.9972,0.0019,-0.0127,0.0464,16.972,2.23,615.64,16.696,2.214,604.145,474.345,64.551,16839.568,0
2025-05-30 17:27:50.531,0.136,-0.002,9.864,0.518,0.204,19.575,0.0618,0.0021,-0.0788,0.0563,0.0013,-0.0747,33,0.88,-1.54,5.08,0.9972,0.0083,-0.0131,0.0445,16.98,2.235,616.002,16.705,2.215,604.519,475.181,64.662,16869.795,0
2025-05-30 17:27:50.583,0.158,0.014,9.844,0.59,0.133,19.554,0.017,-0.0831,0.0618,0.0209,-0.0731,0.0479,33,0.37,-1.84,5.23,0.9971,0.004,-0.0159,0.0458,16.99,2.241,616.363,16.714,2.216,604.893,476.016,64.773,16900.039,0
2025-05-30 17:27:50.638,0.169,-0.018,9.892,0.495,0.058,19.606,0.0511,0.0831,0.0362,0.048,0.069,0.0372,33,0.12,-1.22,5.35,0.9972,0.0015,-0.0106,0.0468,17.001,2.244,616.725,16.724,2.217,605.267,476.853,64.884,16930.303,0
2025-05-30 17:27:50.697,0.124,-0.029,9.858,0.542,0.091,19.569,0.0597,0.0,0.1342,0.0584,0.0085,0.1243,33,0.38,-1.76,5.7,0.9969,0.0041,-0.0152,0.0499,17.009,2.245,617.087,16.733,2.218,605.64,477.689,64.994,16960.584,0
2025-05-30 17:27:50.751,0.131,-0.022,9.86,0.42,0.073,19.574,0.0533,0.1023,0.1577,0.0537,0.0945,0.1541,33,0.23,-1.0,6.15,0.9968,0.0025,-0.0086,0.0538,17.016,2.247,617.447,16.742,2.219,606.013,478.526,65.105,16990.885,0
2025-05-30 17:27:50.804,0.138,-0.054,9.876,0.512,0.014,19.589,0.0234,-0.0021,-0.0554,0.0263,0.0091,-0.0346,33,0.07,-1.49,6.06,0.9968,0.0013,-0.013,0.053,17.023,2.246,617.808,16.751,2.22,606.385,479.364,65.216,17021.203,0
2025-05-30 17:27:50.859,0.131,-0.022,9.86,0.487,0.145,19.572,0.0149,-0.0341,0.1001,0.0159,-0.0282,0.0865,33,0.65,-1.39,6.29,0.9967,0.0064,-0.0118,0.055,17.031,2.248,618.168,16.76,2.22,606.757,480.202,65.327,17051.541,0
2025-05-30 17:27:50.916,0.162,-0.022,9.883,0.578,0.083,19.594,0.0533,-0.0341,-0.0234,0.0494,-0.0319,-0.0126,33,0.29,-1.74,6.27,0.9967,0.0033,-0.0151,0.0548,17.04,2.251,618.528,16.768,2.221,607.129,481.04,65.438,17081.898,0
2025-05-30 17:27:50.966,0.158,-0.025,9.86,0.47,0.038,19.574,0.0383,0.066,-0.0916,0.0393,0.0578,-0.0839,33,0.04,-1.14,6.04,0.9969,0.0009,-0.0099,0.0528,17.049,2.252,618.888,16.777,2.222,607.5,481.879,65.55,17112.273,0
2025-05-30 17:27:51.021,0.144,-0.007,9.862,0.522,0.103,19.574,-0.0107,0.032,0.0767,-0.0058,0.0361,0.0604,33,0.32,-1.52,6.21,0.9967,0.0035,-0.0131,0.0543,17.057,2.253,619.247,16.786,2.223,607.871,482.718,65.661,17142.668,0
2025-05-30 17:27:51.076,0.131,-0.04,9.872,0.49,-0.014,19.585,0.0192,-0.0298,-0.0959,0.0166,-0.0217,-0.0804,33,-0.17,-1.41,5.99,0.9969,-0.0009,-0.0124,0.0523,17.065,2.254,619.606,16.795,2.224,608.242,483.558,65.772,17173.08,0
2025-05-30 17:27:51.130,0.145,-0.038,9.858,0.567,0.096,19.569,0.0405,-0.0511,-0.0362,0.038,-0.0466,-0.0408,33,0.46,-1.78,5.86,0.9969,0.0048,-0.0153,0.0513,17.075,2.254,619.964,16.804,2.225,608.612,484.398,65.883,17203.51,0
2025-05-30 17:27:51.181,0.136,-0.016,9.81,0.486,0.065,19.523,0.0128,-0.0043,-0.049,0.0152,-0.0069,-0.0484,33,0.15,-1.35,5.73,0.997,0.0019,-0.0117,0.0501,17.084,2.256,620.32,16.813,2.226,608.982,485.239,65.995,17233.959,0
2025-05-30 17:27:51.236,0.117,-0.029,9.874,0.545,0.06,19.585,-0.0511,0.032,-0.0277,-0.0446,0.0296,-0.03,33,0.19,-1.81,5.64,0.997,0.0025,-0.0158,0.0493,17.092,2.256,620.677,16.822,2.227,609.352,486.08,66.106,17264.426,0
2025-05-30 17:27:51.290,0.111,-0.034,9.849,0.479,0.044,19.562,0.0128,-0.0874,-0.0533,0.0069,-0.0741,-0.0511,33,0.13,-1.46,5.5,0.9971,0.0018,-0.0127,0.048,17.101,2.257,621.034,16.831,2.228,609.721,486.922,66.217,17294.912,0
2025-05-30 17:27:51.344,0.147,-0.027,9.862,0.603,0.116,19.571,0.0724,0.0149,0.0618,0.0658,0.0076,0.0503,33,0.51,-1.98,5.63,0.9969,0.0053,-0.017,0.0493,17.111,2.258,621.39,16.84,2.229,610.089,487.764,66.329,17325.416,0
2025-05-30 17:27:51.397,0.149,-0.018,9.872,0.507,0.057,19.585,-0.032,0.0383,0.0682,-0.0223,0.0368,0.0662,33,0.11,-1.4,5.83,0.9969,0.0016,-0.0122,0.051,17.121,2.261,621.747,16.849,2.23,610.458,488.606,66.44,17355.939,0
2025-05-30 17:27:51.453,0.124,-0.005,9.844,0.517,0.165,19.555,0.0,-0.0746,0.0383,-0.0023,-0.0619,0.0409,33,0.68,-1.61,5.94,0.9968,0.0066,-0.0138,0.0519,17.13,2.264,622.102,16.858,2.231,610.826,489.449,66.552,17386.48,0
2025-05-30 17:27:51.508,0.12,-0.007,9.889,0.476,0.084,19.602,0.0149,-0.0192,0.0788,0.0131,-0.0219,0.0749,33,0.21,-1.39,6.16,0.9968,0.0025,-0.012,0.0539,17.138,2.268,622.458,16.867,2.233,611.193,490.292,66.664,17417.041,0
2025-05-30 17:27:51.560,0.154,-0.009,9.849,0.626,0.098,19.558,-0.032,-0.0511,-0.1193,-0.0276,-0.0466,-0.1001,33,0.3,-2.07,5.87,0.9968,0.0036,-0.0179,0.0513,17.148,2.27,622.814,16.875,2.234,611.561,491.136,66.775,17447.619,0
2025-05-30 17:27:51.615,0.147,-0.041,9.837,0.527,0.046,19.549,0.0469,0.0085,0.0447,0.0393,0.0046,0.0301,33,0.19,-1.53,5.96,0.9969,0.0024,-0.0133,0.0521,17.16,2.271,623.168,16.885,2.235,611.928,491.98,66.887,17478.215,0
2025-05-30 17:27:51.670,0.147,-0.036,9.847,0.509,-0.049,19.56,-0.017,0.081,-0.0767,-0.0115,0.0749,-0.0662,33,-0.4,-1.43,5.79,0.9969,-0.0029,-0.0126,0.0505,17.168,2.269,623.521,16.894,2.236,612.294,492.825,66.999,17508.83,0
2025-05-30 17:27:51.724,0.113,-0.022,9.855,0.447,0.031,19.568,-0.0639,0.0234,0.2024,-0.0588,0.0301,0.1754,33,-0.01,-1.26,6.28,0.9967,0.0005,-0.011,0.0548,17.175,2.266,623.875,16.903,2.237,612.66,493.67,67.111,17539.463,0
2025-05-30 17:27:51.775,0.142,-0.022,9.869,0.507,0.158,19.581,0.1534,0.0959,0.1129,0.1321,0.0909,0.119,33,0.72,-1.44,6.61,0.9965,0.007,-0.0122,0.0578,17.182,2.269,624.229,16.911,2.238,613.026,494.516,67.223,17570.113,0
2025-05-30 17:27:51.832,0.169,-0.018,9.872,0.516,0.118,19.585,0.0916,0.1193,0.0277,0.0955,0.118,0.0366,33,0.47,-1.34,6.73,0.9965,0.0048,-0.0115,0.0588,17.19,2.273,624.583,16.92,2.239,613.392,495.362,67.334,17600.783,0
2025-05-30 17:27:51.884,0.162,-0.038,9.84,0.569,0.037,19.552,0.0234,-0.0149,-0.0724,0.0305,-0.0001,-0.0617,33,0.12,-1.7,6.56,0.9966,0.0019,-0.0147,0.0574,17.2,2.275,624.936,16.929,2.24,613.757,496.208,67.446,17631.471,0
2025-05-30 17:27:51.940,0.156,-0.029,9.831,0.453,0.066,19.545,-0.049,0.0469,-0.0298,-0.0412,0.0437,-0.0332,33,0.23,-1.05,6.46,0.9967,0.0025,-0.009,0.0565,17.208,2.275,625.287,16.938,2.241,614.122,497.055,67.559,17662.178,0
2025-05-30 17:27:51.995,0.169,-0.013,9.844,0.549,0.063,19.556,-0.0447,0.0256,0.0447,-0.0445,0.029,0.0368,33,0.12,-1.53,6.57,0.9966,0.0018,-0.0133,0.0574,17.216,2.276,625.638,16.947,2.243,614.486,497.902,67.671,17692.902,0
2025-05-30 17:27:52.046,0.147,-0.048,9.856,0.565,-0.029,19.568,0.098,-0.0554,0.0426,0.0836,-0.0454,0.0418,33,-0.21,-1.75,6.7,0.9965,-0.0009,-0.0154,0.0585,17.227,2.275,625.99,16.956,2.244,614.85,498.75,67.783,17723.645,0
2025-05-30 17:27:52.102,0.14,-0.032,9.84,0.52,0.054,19.552,-0.0341,-0.0405,0.0959,-0.0224,-0.0394,0.0903,33,0.18,-1.53,6.95,0.9964,0.0024,-0.0133,0.0607,17.237,2.273,626.341,16.965,2.245,615.213,499.598,67.895,17754.404,0
2025-05-30 17:27:52.153,0.14,-0.059,9.846,0.452,-0.096,19.559,-0.0575,0.1278,-0.0682,-0.0541,0.1127,-0.0525,33,-0.54,-1.14,6.81,0.9965,-0.0041,-0.0102,0.0595,17.244,2.27,626.692,16.974,2.245,615.577,500.447,68.007,17785.184,0
2025-05-30 17:27:52.207,0.16,-0.032,9.862,0.568,0.002,19.573,-0.0149,-0.1023,-0.0277,-0.0189,-0.0792,-0.0304,33,-0.12,-1.7,6.72,0.9965,-0.0002,-0.0149,0.0587,17.252,2.265,627.042,16.983,2.246,615.939,501.296,68.12,17815.98,0
2025-05-30 17:27:52.262,0.136,-0.022,9.842,0.496,0.109,19.555,0.0362,-0.0043,0.0447,0.0306,-0.0102,0.037,33,0.44,-1.41,6.81,0.9965,0.0046,-0.0121,0.0595,17.261,2.266,627.392,16.991,2.247,616.302,502.146,68.232,17846.795,0
2025-05-30 17:27:52.314,0.147,-0.047,9.849,0.525,0.024,19.562,0.0724,0.032,0.0575,0.0681,0.0293,0.0553,33,0.09,-1.52,6.98,0.9964,0.0016,-0.0132,0.061,17.269,2.267,627.742,17.0,2.247,616.664,502.996,68.344,17877.629,0
2025-05-30 17:27:52.371,0.135,-0.029,9.853,0.47,0.086,19.566,-0.0916,-0.032,0.0298,-0.0757,-0.0243,0.0322,33,0.35,-1.27,7.06,0.9963,0.0037,-0.0109,0.0617,17.277,2.267,628.091,17.009,2.248,617.026,503.846,68.457,17908.48,0
2025-05-30 17:27:52.425,0.124,-0.032,9.849,0.553,0.023,19.56,0.0575,-0.0895,-0.0618,0.0441,-0.0814,-0.0526,33,-0.0,-1.82,6.92,0.9964,0.001,-0.0159,0.0605,17.285,2.268,628.44,17.018,2.249,617.387,504.697,68.569,17939.35,0
2025-05-30 17:27:52.480,0.149,-0.041,9.871,0.542,-0.011,19.583,-0.1278,-0.1236,0.017,-0.1108,-0.1178,0.0099,33,-0.15,-1.61,6.95,0.9964,-0.0004,-0.0141,0.0606,17.295,2.266,628.79,17.027,2.249,617.748,505.548,68.682,17970.236,0
2025-05-30 17:27:52.532,0.169,-0.031,9.878,0.598,0.07,19.589,-0.0447,-0.0277,-0.0043,-0.0515,-0.0351,-0.003,33,0.27,-1.82,6.92,0.9963,0.0033,-0.0158,0.0605,17.306,2.265,629.139,17.036,2.25,618.109,506.4,68.794,18001.143,0
2025-05-30 17:27:52.587,0.149,-0.029,9.896,0.462,0.053,19.61,0.0469,0.0618,-0.0234,0.0369,0.0537,-0.0216,33,0.16,-1.14,6.87,0.9965,0.002,-0.0099,0.06,17.316,2.266,629.489,17.045,2.25,618.469,507.252,68.907,18032.066,0
2025-05-30 17:27:52.639,0.154,-0.007,9.856,0.572,0.116,19.567,0.0341,-0.032,0.1577,0.0343,-0.0218,0.1395,33,0.4,-1.76,7.26,0.9962,0.0044,-0.0151,0.0635,17.324,2.268,629.838,17.053,2.251,618.829,508.105,69.019,18063.008,0
2025-05-30 17:27:52.701,0.135,-0.027,9.842,0.487,0.007,19.555,-0.066,-0.0213,-0.0618,-0.0561,-0.0198,-0.0418,33,-0.12,-1.37,7.15,0.9963,-0.0003,-0.012,0.0624,17.333,2.269,630.185,17.062,2.252,619.189,508.958,69.132,18093.967,0
2025-05-30 17:27:52.753,0.129,-0.031,9.871,0.496,0.145,19.583,0.1129,0.0234,0.0192,0.0959,0.0207,0.0129,33,0.7,-1.45,7.17,0.9962,0.0069,-0.0123,0.0627,17.34,2.27,630.533,17.071,2.252,619.548,509.812,69.244,18124.943,0
2025-05-30 17:27:52.807,0.151,-0.011,9.847,0.526,0.096,19.56,0.0511,0.0341,0.1577,0.0555,0.0343,0.143,33,0.3,-1.5,7.6,0.996,0.0035,-0.0129,0.0664,17.349,2.274,630.88,17.08,2.253,619.907,510.666,69.357,18155.939,0
2025-05-30 17:27:52.861,0.147,-0.02,9.862,0.566,0.001,19.573,0.0,-0.0107,-0.0639,0.0054,-0.0046,-0.0434,33,-0.2,-1.76,7.49,0.9961,-0.0007,-0.0155,0.0654,17.359,2.274,631.226,17.089,2.254,620.265,511.52,69.47,18186.953,0
2025-05-30 17:27:52.915,0.145,-0.009,9.856,0.542,0.048,19.568,-0.1214,-0.0469,-0.0405,-0.1089,-0.0411,-0.041,33,0.01,-1.63,7.35,0.9961,0.001,-0.0142,0.0642,17.369,2.273,631.572,17.098,2.254,620.624,512.375,69.582,18217.984,0
2025-05-30 17:27:52.970,0.151,-0.036,9.892,0.515,0.067,19.605,-0.0703,-0.0469,-0.115,-0.0743,-0.0447,-0.1078,33,0.28,-1.44,7.03,0.9963,0.0032,-0.0124,0.0615,17.378,2.274,631.919,17.107,2.255,620.981,513.231,69.695,18249.033,0
2025-05-30 17:27:53.023,0.075,-0.007,9.592,0.324,0.126,19.307,0.0682,0.0426,-0.032,0.0538,0.0354,-0.0397,33,0.46,-0.77,6.92,0.9964,0.0044,-0.0064,0.0605,17.381,2.276,632.259,17.116,2.256,621.339,514.086,69.808,18280.1,0
2025-05-30 17:27:53.078,0.14,-0.011,9.799,0.465,0.129,19.512,0.0682,0.0362,0.1257,0.0666,0.0377,0.109,33,0.5,-1.21,7.23,0.9962,0.005,-0.0103,0.0632,17.384,2.28,632.596,17.124,2.256,621.695,514.943,69.921,18311.184,0
2025-05-30 17:27:53.131,0.131,0.027,9.919,0.546,0.147,19.63,-0.0341,0.0128,0.0341,-0.0241,0.0168,0.0414,33,0.38,-1.74,7.35,0.9961,0.0043,-0.0149,0.0643,17.392,2.285,632.941,17.133,2.257,622.052,515.799,70.034,18342.287,0
2025-05-30 17:27:53.187,0.19,0.027,10.056,0.643,0.256,19.764,0.0362,-0.0298,-0.0405,0.0301,-0.0236,-0.0325,33,1.02,-1.96,7.24,0.9961,0.0099,-0.0165,0.0634,17.404,2.293,633.292,17.141,2.258,622.408,516.656,70.147,18373.408,0
2025-05-30 17:27:53.239,0.129,-0.032,9.571,0.577,0.051,19.281,-0.1385,-0.0937,-0.0085,-0.1217,-0.0852,-0.0111,33,0.17,-1.93,7.22,0.9962,0.0025,-0.0167,0.0631,17.417,2.298,633.634,17.15,2.26,622.764,517.514,70.26,18404.547,0
2025-05-30 17:27:53.294,0.151,-0.041,9.776,0.484,0.057,19.489,0.1001,0.0533,0.0192,0.0778,0.041,0.016,33,0.25,-1.26,7.28,0.9962,0.0029,-0.0108,0.0636,17.426,2.298,633.969,17.159,2.261,623.119,518.372,70.373,18435.703,0
2025-05-30 17:27:53.347,0.178,-0.014,9.91,0.562,0.135,19.622,0.115,0.098,-0.0064,0.1112,0.0939,-0.0043,33,0.55,-1.56,7.26,0.9962,0.0057,-0.0133,0.0635,17.435,2.301,634.312,17.168,2.262,623.474,519.23,70.486,18466.877,0
2025-05-30 17:27:53.401,0.074,-0.079,9.74,0.424,-0.04,19.453,-0.0767,-0.0533,-0.081,-0.058,-0.037,-0.0735,33,-0.09,-1.36,7.06,0.9963,-0.0001,-0.0119,0.0617,17.442,2.301,634.653,17.176,2.263,623.828,520.089,70.599,18498.068,0
2025-05-30 17:27:53.455,0.111,-0.018,9.745,0.435,0.151,19.458,0.0788,0.0575,0.0128,0.065,0.0496,0.004,33,0.66,-1.2,7.06,0.9963,0.0064,-0.0101,0.0618,17.446,2.301,634.99,17.185,2.265,624.182,520.948,70.712,18529.277,0
2025-05-30 17:27:53.509,0.162,0.043,9.81,0.565,0.203,19.521,0.0107,0.0277,-0.1598,0.016,0.0315,-0.1436,33,0.61,-1.67,6.66,0.9965,0.0062,-0.0142,0.0582,17.454,2.308,635.329,17.194,2.266,624.536,521.808,70.825,18560.504,0
2025-05-30 17:27:53.564,0.147,-0.004,9.754,0.511,0.042,19.467,-0.0511,0.0107,-0.0149,-0.0445,0.0143,-0.028,33,-0.06,-1.44,6.59,0.9966,0.0002,-0.0126,0.0576,17.463,2.312,635.667,17.202,2.267,624.889,522.668,70.939,18591.748,0
2025-05-30 17:27:53.617,0.119,-0.075,9.781,0.454,-0.164,19.493,-0.1278,-0.0788,0.0234,-0.1196,-0.0679,0.0181,33,-0.84,-1.27,6.65,0.9965,-0.0067,-0.0116,0.058,17.47,2.306,636.005,17.211,2.269,625.241,523.528,71.052,18623.01,0
2025-05-30 17:27:53.673,0.145,0.047,9.838,0.545,-0.001,19.55,-0.1108,-0.1001,0.0149,-0.1118,-0.0953,0.015,33,-0.6,-1.65,6.69,0.9965,-0.0044,-0.0147,0.0583,17.477,2.3,636.344,17.219,2.27,625.594,524.389,71.166,18654.289,0
2025-05-30 17:27:53.727,0.124,-0.025,9.772,0.514,-0.004,19.484,-0.0469,-0.0298,-0.0618,-0.0535,-0.0348,-0.0543,33,-0.2,-1.59,6.52,0.9966,-0.001,-0.014,0.0569,17.486,2.298,636.682,17.228,2.271,625.945,525.251,71.279,18685.586,0
2025-05-30 17:27:53.781,0.127,-0.108,9.869,0.438,-0.124,19.583,0.0426,-0.0021,-0.0682,0.0329,-0.0038,-0.067,33,-0.42,-1.13,6.33,0.9967,-0.0031,-0.01,0.0553,17.492,2.292,637.021,17.236,2.271,626.297,526.113,71.393,18716.9,0
2025-05-30 17:27:53.834,0.023,-0.009,10.172,0.297,0.031,19.887,-0.0746,-0.0149,0.0597,-0.0639,-0.0122,0.0468,33,-0.09,-0.91,6.46,0.9967,-0.0003,-0.008,0.0564,17.493,2.288,637.37,17.245,2.272,626.648,526.975,71.506,18748.232,0
2025-05-30 17:27:53.888,0.135,-0.056,9.964,0.524,0.001,19.676,0.0107,-0.0447,-0.0277,0.0031,-0.0399,-0.0204,33,0.01,-1.59,6.4,0.9966,0.0009,-0.0139,0.0559,17.496,2.286,637.721,17.253,2.272,627.0,527.837,71.62,18779.582,0
2025-05-30 17:27:53.940,0.156,-0.072,9.977,0.531,-0.115,19.689,-0.0064,0.017,0.0,-0.0056,0.0129,-0.0022,33,-0.57,-1.5,6.41,0.9966,-0.0043,-0.0134,0.0559,17.505,2.281,638.066,17.261,2.273,627.351,528.701,71.734,18810.949,0
2025-05-30 17:27:53.998,0.232,-0.005,10.19,0.638,0.033,19.902,-0.0107,0.032,-0.0298,-0.0103,0.0316,-0.0273,33,-0.1,-1.69,6.31,0.9967,-0.0001,-0.0148,0.0552,17.517,2.277,638.417,17.269,2.273,627.702,529.564,71.847,18842.334,0
2025-05-30 17:27:54.049,0.124,-0.04,9.984,0.422,0.054,19.698,0.0064,0.0554,-0.0234,0.0046,0.0546,-0.024,33,0.22,-1.05,6.24,0.9968,0.0025,-0.0091,0.0545,17.526,2.277,638.768,17.277,2.273,628.053,530.428,71.961,18873.736,0
2025-05-30 17:27:54.105,0.135,-0.09,9.973,0.472,-0.033,19.686,0.0767,0.0554,0.0426,0.0694,0.0569,0.0358,33,0.01,-1.28,6.35,0.9967,0.0007,-0.0112,0.0555,17.53,2.275,639.112,17.285,2.273,628.404,531.292,72.075,18905.156,0
2025-05-30 17:27:54.171,0.163,0.005,9.926,0.55,0.184,19.638,0.1172,0.0383,0.1939,0.1123,0.0418,0.1779,33,0.72,-1.57,6.85,0.9964,0.0071,-0.0134,0.0599,17.538,2.276,639.455,17.293,2.273,628.755,532.157,72.188,18936.594,0
2025-05-30 17:27:54.211,0.151,-0.016,9.881,0.526,0.083,19.594,0.032,0.0149,0.0021,0.0399,0.0192,0.0195,33,0.26,-1.51,6.92,0.9964,0.0031,-0.013,0.0605,17.548,2.281,639.796,17.302,2.274,629.105,533.022,72.302,18968.049,0
2025-05-30 17:27:54.267,0.14,-0.031,9.885,0.52,-0.037,19.597,-0.0234,-0.0277,0.0085,-0.0172,-0.0214,0.0094,33,-0.36,-1.53,6.96,0.9964,-0.0023,-0.0136,0.0608,17.556,2.28,640.135,17.31,2.274,629.455,533.887,72.416,18999.521,0
2025-05-30 17:27:54.319,0.145,0.013,9.937,0.515,0.108,19.65,0.0128,0.0213,0.0426,0.0097,0.0186,0.0391,33,0.23,-1.47,7.06,0.9963,0.0028,-0.0127,0.0617,17.565,2.279,640.475,17.318,2.274,629.805,534.753,72.529,19031.012,0
2025-05-30 17:27:54.374,0.14,-0.034,9.876,0.564,-0.066,19.587,-0.0767,-0.0703,-0.0362,-0.0682,-0.0599,-0.0289,33,-0.51,-1.79,6.99,0.9963,-0.0035,-0.0159,0.061,17.574,2.278,640.814,17.326,2.274,630.155,535.62,72.643,19062.52,0
2025-05-30 17:27:54.427,0.156,-0.022,9.867,0.605,0.031,19.577,-0.017,-0.1108,-0.081,-0.0223,-0.1041,-0.0759,33,-0.02,-1.94,6.76,0.9964,0.0009,-0.0169,0.059,17.586,2.275,641.152,17.334,2.274,630.504,536.486,72.757,19094.045,0
2025-05-30 17:27:54.480,0.158,-0.016,9.867,0.508,0.08,19.58,-0.0277,0.0575,0.0788,-0.0273,0.0429,0.0632,33,0.24,-1.36,6.93,0.9964,0.0028,-0.0117,0.0605,17.596,2.275,641.488,17.343,2.275,630.853,537.353,72.871,19125.588,0
2025-05-30 17:27:54.534,0.142,-0.011,9.833,0.56,0.122,19.544,0.0639,0.0597,0.13,0.0547,0.0595,0.1231,33,0.46,-1.76,7.28,0.9962,0.005,-0.0151,0.0636,17.605,2.278,641.824,17.351,2.275,631.201,538.221,72.984,19157.148,0
2025-05-30 17:27:54.588,0.122,-0.009,9.865,0.418,0.083,19.579,0.0021,0.0724,-0.0277,0.0073,0.0727,-0.0128,33,0.21,-1.04,7.25,0.9963,0.0024,-0.009,0.0633,17.612,2.281,642.159,17.36,2.275,631.549,539.089,73.098,19188.727,0
2025-05-30 17:27:54.642,0.163,-0.025,9.837,0.605,0.058,19.547,-0.0064,-0.1193,0.0362,-0.0051,-0.0985,0.0311,33,0.16,-1.89,7.34,0.9961,0.0025,-0.0164,0.0641,17.62,2.282,642.494,17.368,2.275,631.897,539.957,73.212,19220.322,0
2025-05-30 17:27:54.703,0.135,-0.007,9.881,0.505,0.076,19.594,-0.0639,-0.0426,-0.1662,-0.0581,-0.0466,-0.1466,33,0.16,-1.47,6.91,0.9964,0.0022,-0.0128,0.0604,17.63,2.283,642.829,17.376,2.276,632.244,540.826,73.326,19251.934,0
2025-05-30 17:27:54.756,0.156,-0.043,9.869,0.588,-0.002,19.58,0.0469,0.0405,0.0831,0.0363,0.0333,0.0599,33,-0.08,-1.84,7.09,0.9963,0.0003,-0.0161,0.062,17.639,2.283,643.165,17.385,2.276,632.591,541.695,73.439,19283.562,0
2025-05-30 17:27:54.810,0.142,-0.022,9.833,0.51,0.045,19.546,-0.0916,-0.0277,0.0128,-0.0789,-0.02,0.0173,33,0.07,-1.46,7.13,0.9963,0.0014,-0.0127,0.0623,17.649,2.282,643.499,17.393,2.276,632.938,542.565,73.553,19315.209,0
2025-05-30 17:27:54.864,0.153,0.0,9.876,0.557,0.13,19.587,-0.049,0.0085,0.1193,-0.0521,0.0072,0.1089,33,0.43,-1.67,7.43,0.9961,0.0047,-0.0144,0.0649,17.658,2.284,643.833,17.402,2.276,633.284,543.435,73.667,19346.873,0
2025-05-30 17:27:54.919,0.142,-0.054,9.855,0.476,-0.026,19.568,-0.0149,0.0788,0.0256,-0.0187,0.0732,0.0337,33,-0.16,-1.27,7.54,0.9961,-0.0006,-0.0111,0.0659,17.666,2.284,644.167,17.41,2.277,633.63,544.306,73.781,19378.555,0
2025-05-30 17:27:54.973,0.149,-0.043,9.849,0.499,0.056,19.562,0.0277,0.13,0.0426,0.0229,0.1259,0.0415,33,0.26,-1.36,7.65,0.996,0.003,-0.0117,0.0668,17.673,2.283,644.5,17.419,2.277,633.975,545.176,73.895,19410.254,0
2025-05-30 17:27:55.025,0.147,-0.034,9.876,0.586,0.018,19.587,0.0213,-0.0362,0.0085,0.0214,-0.0184,0.0116,33,-0.02,-1.87,7.69,0.9959,0.001,-0.0164,0.0672,17.682,2.282,644.833,17.427,2.277,634.32,546.048,74.009,19441.971,0
2025-05-30 17:27:55.083,0.14,0.009,9.869,0.536,0.141,19.58,0.017,-0.0575,-0.0298,0.0174,-0.052,-0.0259,33,0.45,-1.63,7.61,0.996,0.0049,-0.014,0.0665,17.693,2.283,645.167,17.435,2.277,634.665,546.92,74.122,19473.703,0
2025-05-30 17:27:55.135,0.127,-0.034,9.837,0.475,0.001,19.55,-0.032,0.0021,0.0149,-0.0271,-0.0017,0.0106,33,-0.12,-1.34,7.65,0.996,-0.0002,-0.0118,0.0668,17.7,2.284,645.499,17.444,2.278,635.01,547.792,74.236,19505.453,0
2025-05-30 17:27:55.190,0.151,-0.038,9.844,0.554,0.104,19.555,0.0916,0.032,0.0256,0.0796,0.0302,0.0239,33,0.5,-1.67,7.71,0.9959,0.0054,-0.0142,0.0674,17.708,2.284,645.83,17.452,2.278,635.354,548.664,74.35,19537.221,0
2025-05-30 17:27:55.241,0.138,-0.009,9.851,0.469,0.085,19.564,0.0618,0.0277,-0.0064,0.0635,0.0295,-0.0036,33,0.23,-1.25,7.71,0.996,0.0027,-0.0107,0.0674,17.716,2.287,646.161,17.461,2.278,635.697,549.537,74.464,19569.006,0
2025-05-30 17:27:55.295,0.14,-0.032,9.864,0.567,0.012,19.574,-0.0426,-0.0149,0.0767,-0.0321,-0.0089,0.0685,33,-0.06,-1.81,7.91,0.9958,0.0006,-0.0158,0.0691,17.724,2.287,646.492,17.469,2.279,636.04,550.411,74.578,19600.809,0
2025-05-30 17:27:55.352,0.147,-0.018,9.844,0.51,0.123,19.556,0.0639,-0.0064,0.1023,0.0542,-0.0051,0.0987,33,0.5,-1.44,8.18,0.9957,0.0053,-0.0122,0.0715,17.734,2.287,646.823,17.478,2.279,636.383,551.285,74.692,19632.627,0
2025-05-30 17:27:55.404,0.136,-0.018,9.856,0.513,0.022,19.569,-0.0149,0.0064,0.081,-0.0081,0.0068,0.0825,33,-0.09,-1.51,8.43,0.9955,0.0002,-0.0132,0.0736,17.741,2.289,647.154,17.486,2.279,636.726,552.159,74.806,19664.463,0
2025-05-30 17:27:55.457,0.171,-0.027,9.838,0.622,0.107,19.548,0.0277,-0.049,-0.0895,0.024,-0.0419,-0.0725,33,0.46,-1.95,8.21,0.9956,0.0052,-0.0167,0.0718,17.752,2.29,647.483,17.495,2.28,637.068,553.034,74.92,19696.316,0
2025-05-30 17:27:55.510,0.147,-0.031,9.815,0.531,0.021,19.527,-0.0554,-0.017,-0.1129,-0.0476,-0.018,-0.1091,33,-0.02,-1.55,7.91,0.9958,0.0008,-0.0136,0.0691,17.763,2.291,647.812,17.503,2.28,637.41,553.909,75.034,19728.187,0
2025-05-30 17:27:55.564,0.162,-0.025,9.837,0.591,0.149,19.547,0.0788,-0.0192,0.0021,0.0661,-0.0175,-0.0092,33,0.7,-1.82,7.87,0.9958,0.0072,-0.0155,0.0688,17.773,2.293,648.14,17.512,2.28,637.751,554.785,75.148,19760.074,0
2025-05-30 17:27:55.622,0.124,-0.002,9.867,0.464,0.124,19.58,0.0341,0.0405,0.0362,0.0372,0.0363,0.0315,33,0.41,-1.3,7.97,0.9958,0.0044,-0.0111,0.0696,17.782,2.297,648.469,17.521,2.281,638.092,555.661,75.262,19791.979,0
2025-05-30 17:27:55.673,0.135,-0.023,9.858,0.561,0.021,19.569,-0.0085,-0.066,0.1768,-0.0041,-0.0542,0.1621,33,-0.07,-1.81,8.44,0.9955,0.0006,-0.0158,0.0737,17.79,2.298,648.798,17.529,2.282,638.433,556.537,75.376,19823.9,0
2025-05-30 17:27:55.729,0.145,-0.023,9.817,0.502,0.103,19.53,0.032,0.0043,-0.0405,0.0282,-0.0,-0.0204,33,0.41,-1.39,8.37,0.9955,0.0045,-0.0119,0.0732,17.798,2.299,649.126,17.538,2.282,638.773,557.414,75.49,19855.84,0
2025-05-30 17:27:55.783,0.149,-0.02,9.862,0.536,0.075,19.574,0.1044,0.066,0.1342,0.0967,0.061,0.1186,33,0.23,-1.58,8.72,0.9953,0.0031,-0.0136,0.0762,17.807,2.301,649.453,17.546,2.283,639.113,558.291,75.604,19887.795,0
2025-05-30 17:27:55.834,0.158,-0.022,9.829,0.659,0.014,19.538,0.0,-0.1001,-0.1044,0.0096,-0.0825,-0.0823,33,-0.11,-2.24,8.5,0.9954,0.0005,-0.0196,0.0742,17.819,2.301,649.781,17.555,2.284,639.453,559.169,75.719,19919.768,0
2025-05-30 17:27:55.888,0.108,-0.014,9.914,0.523,0.054,19.625,-0.0064,-0.0064,-0.0447,-0.0049,-0.0124,-0.0487,33,0.08,-1.74,8.36,0.9955,0.0018,-0.0151,0.073,17.83,2.3,650.109,17.564,2.284,639.792,560.047,75.833,19951.758,0
2025-05-30 17:27:55.943,0.135,-0.041,9.871,0.461,0.035,19.584,0.0149,-0.0213,-0.0639,0.0128,-0.0189,-0.0626,33,0.13,-1.22,8.18,0.9957,0.0019,-0.0106,0.0714,17.837,2.3,650.438,17.573,2.285,640.131,560.926,75.947,19983.764,0
2025-05-30 17:27:55.996,0.171,0.016,9.844,0.588,0.146,19.555,0.0,-0.017,0.0043,0.0012,-0.0157,-0.0026,33,0.43,-1.75,8.16,0.9956,0.0049,-0.015,0.0713,17.845,2.302,650.765,17.581,2.285,640.47,561.805,76.061,20015.787,0
2025-05-30 17:27:56.053,0.136,-0.02,9.883,0.478,0.125,19.596,0.179,0.0021,0.049,0.1611,0.0019,0.0437,33,0.52,-1.31,8.3,0.9956,0.0054,-0.0111,0.0725,17.854,2.307,651.092,17.59,2.286,640.808,562.685,76.175,20047.828,0
2025-05-30 17:27:56.106,0.153,-0.038,9.86,0.553,0.02,19.572,-0.0277,-0.0149,0.0533,-0.0089,-0.0117,0.0521,33,0.01,-1.65,8.46,0.9955,0.0012,-0.0144,0.0739,17.862,2.307,651.419,17.599,2.287,641.146,563.564,76.29,20079.885,0
2025-05-30 17:27:56.160,0.136,-0.009,9.837,0.501,0.091,19.549,-0.0916,-0.0383,-0.049,-0.0835,-0.0341,-0.0391,33,0.26,-1.44,8.33,0.9956,0.0032,-0.0124,0.0728,17.87,2.307,651.745,17.607,2.287,641.483,564.445,76.404,20111.959,0
2025-05-30 17:27:56.215,0.131,-0.029,9.837,0.496,-0.062,19.549,-0.0746,0.0277,-0.0554,-0.0756,0.0231,-0.054,33,-0.52,-1.45,8.19,0.9957,-0.0036,-0.013,0.0715,17.878,2.306,652.07,17.616,2.288,641.82,565.326,76.519,20144.051,0
2025-05-30 17:27:56.268,0.131,-0.034,9.878,0.467,0.015,19.591,-0.0277,0.0639,-0.0426,-0.0326,0.0614,-0.0439,33,-0.04,-1.27,8.05,0.9958,0.0005,-0.0111,0.0703,17.884,2.302,652.395,17.625,2.288,642.157,566.207,76.633,20176.158,0
2025-05-30 17:27:56.321,0.163,-0.025,9.865,0.568,0.004,19.577,-0.1534,0.0277,0.0149,-0.1414,0.0326,0.0088,33,-0.15,-1.68,8.07,0.9957,-0.0003,-0.0147,0.0705,17.892,2.3,652.721,17.633,2.289,642.494,567.089,76.747,20208.283,0
2025-05-30 17:27:56.379,0.129,0.007,9.855,0.467,0.128,19.568,0.0256,0.0554,0.1236,0.0088,0.0547,0.1119,33,0.38,-1.29,8.38,0.9956,0.0042,-0.011,0.0732,17.9,2.301,653.046,17.642,2.289,642.83,567.971,76.862,20240.424,0
2025-05-30 17:27:56.431,0.142,-0.041,9.838,0.534,-0.029,19.55,-0.0682,0.0043,0.0937,-0.0606,0.0109,0.0954,33,-0.25,-1.6,8.66,0.9953,-0.0011,-0.0141,0.0756,17.907,2.301,653.37,17.65,2.29,643.166,568.853,76.976,20272.582,0
2025-05-30 17:27:56.483,0.126,-0.009,9.842,0.532,0.074,19.554,-0.0447,-0.1087,-0.0703,-0.0464,-0.0951,-0.0539,33,0.16,-1.69,8.49,0.9954,0.0025,-0.0146,0.0742,17.915,2.3,653.693,17.659,2.29,643.501,569.736,77.091,20304.758,0
2025-05-30 17:27:56.541,0.126,0.02,9.869,0.451,0.174,19.582,0.0064,0.0362,-0.0682,0.001,0.0247,-0.0669,33,0.58,-1.22,8.29,0.9956,0.0058,-0.0102,0.0725,17.922,2.303,654.017,17.667,2.291,643.836,570.619,77.205,20336.949,0
2025-05-30 17:27:56.593,0.124,-0.029,9.892,0.5,0.049,19.605,0.032,-0.0277,0.0874,0.0288,-0.0209,0.0717,33,0.13,-1.51,8.51,0.9955,0.0022,-0.0131,0.0743,17.928,2.307,654.342,17.675,2.291,644.171,571.503,77.32,20369.158,0
2025-05-30 17:27:56.647,0.153,-0.054,9.86,0.608,-0.055,19.57,0.0107,-0.0746,-0.0341,0.0124,-0.0676,-0.0237,33,-0.33,-1.98,8.46,0.9954,-0.0016,-0.0174,0.0738,17.938,2.304,654.666,17.684,2.292,644.506,572.387,77.435,20401.383,0
2025-05-30 17:27:56.706,0.126,-0.022,9.844,0.545,0.03,19.555,-0.0341,-0.0724,-0.0085,-0.0296,-0.0704,-0.0102,33,-0.02,-1.76,8.42,0.9955,0.001,-0.0154,0.0735,17.948,2.301,654.988,17.692,2.292,644.84,573.272,77.549,20433.625,0
2025-05-30 17:27:56.760,0.131,0.002,9.892,0.478,0.177,19.605,0.1193,0.0213,0.0128,0.1043,0.0137,0.0103,33,0.7,-1.34,8.43,0.9955,0.007,-0.0112,0.0737,17.956,2.304,655.311,17.701,2.292,645.174,574.157,77.664,20465.883,0
2025-05-30 17:27:56.813,0.153,-0.011,9.838,0.559,0.068,19.55,-0.0362,-0.032,-0.0362,-0.0223,-0.0258,-0.0318,33,0.14,-1.69,8.36,0.9955,0.0023,-0.0146,0.073,17.964,2.308,655.634,17.709,2.293,645.507,575.043,77.778,20498.158,0
2025-05-30 17:27:56.867,0.14,-0.041,9.86,0.485,-0.012,19.573,-0.0447,-0.0724,-0.0043,-0.0426,-0.0662,-0.0072,33,-0.15,-1.33,8.34,0.9956,-0.0005,-0.0117,0.0728,17.972,2.308,655.955,17.718,2.293,645.841,575.928,77.893,20530.451,0
2025-05-30 17:27:56.923,0.122,-0.036,9.867,0.486,0.07,19.58,-0.032,0.0192,0.1236,-0.0331,0.0122,0.1103,33,0.3,-1.44,8.64,0.9954,0.0036,-0.0123,0.0755,17.978,2.307,656.277,17.726,2.294,646.173,576.815,78.008,20562.76,0
2025-05-30 17:27:56.977,0.145,-0.013,9.829,0.643,0.057,19.538,0.0107,-0.1065,-0.098,0.0062,-0.0931,-0.0774,33,0.08,-2.22,8.43,0.9954,0.0021,-0.0193,0.0736,17.989,2.308,656.598,17.734,2.294,646.506,577.701,78.122,20595.086,0
2025-05-30 17:27:57.032,0.126,-0.027,9.862,0.546,0.043,19.573,-0.0213,-0.0362,0.0405,-0.0187,-0.0403,0.0285,33,0.09,-1.77,8.5,0.9954,0.0019,-0.0153,0.0743,18.0,2.308,656.918,17.743,2.295,646.838,578.589,78.237,20627.428,0
2025-05-30 17:27:57.084,0.144,-0.014,9.849,0.493,0.084,19.562,-0.0575,-0.0234,-0.196,-0.0538,-0.0236,-0.1737,33,0.25,-1.35,8.0,0.9958,0.003,-0.0116,0.0699,18.008,2.309,657.239,17.751,2.295,647.17,579.476,78.352,20659.787,0
2025-05-30 17:27:57.137,0.145,-0.04,9.872,0.553,-0.008,19.584,0.0,0.0341,-0.0298,-0.0055,0.0299,-0.0444,33,-0.14,-1.69,7.88,0.9958,-0.0002,-0.0149,0.0688,18.016,2.309,657.559,17.76,2.296,647.501,580.364,78.467,20692.162,0
2025-05-30 17:27:57.193,0.154,-0.02,9.862,0.537,0.059,19.574,-0.1044,-0.0128,-0.0043,-0.0946,-0.0069,-0.0085,33,0.14,-1.55,7.84,0.9959,0.0021,-0.0134,0.0685,18.026,2.308,657.88,17.768,2.296,647.832,581.253,78.582,20724.555,0
2025-05-30 17:27:57.246,0.126,-0.011,9.867,0.425,0.129,19.581,-0.0043,0.0277,0.0298,-0.0134,0.0258,0.0258,33,0.49,-1.06,7.91,0.9959,0.0049,-0.009,0.0691,18.032,2.31,658.2,17.777,2.297,648.163,582.141,78.696,20756.963,0
2025-05-30 17:27:57.299,0.154,-0.032,9.84,0.523,0.073,19.553,0.0469,0.0213,-0.0746,0.0407,0.0233,-0.0647,33,0.29,-1.47,7.73,0.9959,0.0034,-0.0126,0.0675,18.037,2.313,658.519,17.785,2.297,648.494,583.031,78.811,20789.387,0
2025-05-30 17:27:57.355,0.133,-0.022,9.838,0.481,0.015,19.551,0.0597,0.0383,-0.0277,0.0577,0.0384,-0.0316,33,-0.11,-1.35,7.65,0.996,-0.0002,-0.0118,0.0668,18.044,2.312,658.837,17.794,2.298,648.824,583.92,78.926,20821.828,0
2025-05-30 17:27:57.408,0.151,-0.023,9.89,0.557,0.093,19.602,-0.0043,-0.0085,0.0021,0.0018,-0.0023,-0.0014,33,0.36,-1.69,7.64,0.996,0.0041,-0.0145,0.0668,18.052,2.312,659.156,17.802,2.298,649.154,584.81,79.041,20854.285,0
2025-05-30 17:27:57.462,0.136,-0.029,9.874,0.444,0.055,19.588,0.0831,0.066,0.0511,0.0749,0.0608,0.0457,33,0.17,-1.11,7.78,0.9959,0.0021,-0.0096,0.068,18.059,2.314,659.475,17.81,2.299,649.483,585.701,79.156,20886.76,0
2025-05-30 17:27:57.515,0.158,-0.011,9.855,0.615,0.083,19.564,-0.0277,-0.13,-0.0511,-0.0176,-0.1093,-0.0416,33,0.22,-1.98,7.66,0.9959,0.0031,-0.0172,0.0669,18.067,2.315,659.794,17.818,2.299,649.812,586.592,79.271,20919.25,0
2025-05-30 17:27:57.570,0.135,-0.04,9.846,0.504,0.029,19.558,0.0,-0.0064,-0.0043,-0.0019,-0.0151,-0.0082,33,0.08,-1.47,7.64,0.996,0.0015,-0.0128,0.0667,18.077,2.315,660.111,17.827,2.3,650.141,587.483,79.386,20951.758,0
2025-05-30 17:27:57.623,0.136,-0.029,9.856,0.502,0.15,19.568,0.032,0.0426,-0.0277,0.0285,0.0384,-0.0259,33,0.72,-1.45,7.55,0.996,0.0072,-0.0122,0.066,18.084,2.318,660.428,17.835,2.301,650.469,588.375,79.501,20984.281,0
2025-05-30 17:27:57.680,0.102,-0.007,9.849,0.453,0.02,19.562,-0.1364,-0.049,0.0916,-0.12,-0.0387,0.0797,33,-0.16,-1.36,7.79,0.9959,-0.0006,-0.012,0.068,18.09,2.32,660.745,17.843,2.301,650.798,589.267,79.616,21016.82,0
2025-05-30 17:27:57.732,0.129,-0.043,9.844,0.516,0.064,19.556,-0.0149,-0.0064,0.0788,-0.0255,-0.0081,0.0787,33,0.3,-1.57,8.0,0.9958,0.0036,-0.0135,0.0699,18.096,2.319,661.061,17.851,2.302,651.125,590.16,79.731,21049.377,0
2025-05-30 17:27:57.787,0.156,-0.036,9.865,0.549,-0.034,19.577,-0.0128,0.0128,0.0426,-0.0142,0.0123,0.046,33,-0.31,-1.61,8.15,0.9957,-0.0017,-0.0142,0.0711,18.105,2.318,661.378,17.859,2.302,651.453,591.053,79.846,21081.949,0
2025-05-30 17:27:57.839,0.145,0.013,9.867,0.566,0.091,19.578,-0.049,-0.0895,-0.1001,-0.0456,-0.0777,-0.0857,33,0.13,-1.77,7.89,0.9958,0.0022,-0.0154,0.0689,18.114,2.317,661.694,17.868,2.303,651.78,591.946,79.961,21114.539,0
2025-05-30 17:27:57.892,0.154,-0.041,9.867,0.46,0.027,19.581,0.0447,0.0554,0.0192,0.0356,0.0436,0.0085,33,0.08,-1.1,7.92,0.9959,0.0014,-0.0095,0.0692,18.122,2.318,662.01,17.876,2.303,652.107,592.84,80.077,21147.145,0
2025-05-30 17:27:57.948,0.138,-0.04,9.835,0.509,0.027,19.547,-0.0192,0.066,-0.1406,-0.0138,0.0654,-0.1259,33,0.07,-1.48,7.56,0.996,0.0014,-0.0129,0.066,18.128,2.317,662.326,17.884,2.304,652.433,593.734,80.192,21179.766,0
2025-05-30 17:27:58.000,0.138,-0.004,9.853,0.512,0.177,19.564,0.0362,-0.0021,-0.032,0.0311,0.0062,-0.0415,33,0.73,-1.5,7.42,0.9961,0.0072,-0.0126,0.0649,18.135,2.319,662.64,17.892,2.304,652.759,594.629,80.307,21212.404,0
2025-05-30 17:27:58.056,0.14,-0.052,9.858,0.524,0.043,19.57,0.0234,-0.0234,-0.0362,0.0241,-0.0189,-0.0369,33,0.23,-1.56,7.33,0.9962,0.0029,-0.0134,0.0641,18.143,2.322,662.955,17.9,2.305,653.085,595.524,80.422,21245.059,0
2025-05-30 17:27:58.108,0.138,-0.032,9.851,0.459,-0.006,19.565,0.0298,0.0256,0.0277,0.0291,0.0227,0.021,33,-0.17,-1.19,7.41,0.9962,-0.0008,-0.0105,0.0647,18.15,2.321,663.269,17.908,2.306,653.411,596.419,80.538,21277.729,0
2025-05-30 17:27:58.165,0.124,-0.048,9.835,0.625,0.005,19.543,-0.0959,-0.2514,-0.1065,-0.0835,-0.2224,-0.094,33,-0.01,-2.24,7.13,0.9962,0.0011,-0.0196,0.0623,18.159,2.319,663.583,17.916,2.306,653.736,597.315,80.653,21310.416,0
2025-05-30 17:27:58.218,0.136,0.004,9.858,0.556,0.099,19.569,0.0085,0.0064,-0.0341,-0.0008,-0.0149,-0.0403,33,0.23,-1.77,7.01,0.9963,0.003,-0.0153,0.0612,18.17,2.319,663.896,17.924,2.306,654.06,598.211,80.768,21343.119,0
2025-05-30 17:27:58.271,0.151,-0.034,9.847,0.47,0.006,19.561,-0.0149,0.0341,0.1129,-0.0136,0.0308,0.0974,33,-0.09,-1.18,7.29,0.9962,-0.0001,-0.0103,0.0637,18.177,2.319,664.21,17.932,2.307,654.385,599.108,80.884,21375.838,0
2025-05-30 17:27:58.323,0.158,-0.023,9.842,0.579,0.007,19.553,-0.1406,-0.049,-0.0383,-0.128,-0.0395,-0.025,33,-0.15,-1.77,7.21,0.9962,-0.0003,-0.0156,0.063,18.185,2.317,664.522,17.941,2.307,654.709,600.005,80.999,21408.574,0
2025-05-30 17:27:58.382,0.149,-0.022,9.851,0.546,0.07,19.563,-0.0341,-0.0618,-0.0043,-0.0436,-0.058,-0.0065,33,0.21,-1.64,7.18,0.9962,0.0028,-0.0141,0.0628,18.195,2.316,664.835,17.949,2.308,655.033,600.902,81.114,21441.326,0
2025-05-30 17:27:58.435,0.158,-0.018,9.842,0.45,0.077,19.556,-0.0213,0.0256,0.017,-0.0236,0.0188,0.0145,33,0.23,-1.02,7.22,0.9963,0.0026,-0.0088,0.0631,18.202,2.318,665.147,17.957,2.308,655.356,601.8,81.23,21474.094,0
2025-05-30 17:27:58.486,0.129,-0.032,9.844,0.519,0.064,19.556,0.0575,-0.0107,0.0383,0.0493,-0.0061,0.0358,33,0.24,-1.59,7.33,0.9962,0.003,-0.0137,0.064,18.208,2.319,665.458,17.965,2.308,655.679,602.698,81.345,21506.877,0
2025-05-30 17:27:58.542,0.131,-0.023,9.858,0.405,0.007,19.573,-0.0746,0.0554,-0.0554,-0.0623,0.0508,-0.0465,33,-0.15,-0.92,7.2,0.9963,-0.0008,-0.0081,0.0629,18.213,2.318,665.77,17.973,2.309,656.002,603.597,81.461,21539.678,0
2025-05-30 17:27:58.595,0.138,-0.02,9.855,0.455,0.103,19.568,0.1044,0.0874,0.1385,0.0876,0.0853,0.1198,33,0.4,-1.16,7.53,0.9961,0.0041,-0.0099,0.0658,18.216,2.318,666.082,17.981,2.309,656.324,604.496,81.576,21572.494,0
2025-05-30 17:27:58.647,0.126,0.0,9.846,0.567,0.069,19.556,-0.0767,-0.0831,-0.1768,-0.0604,-0.0647,-0.1474,33,0.08,-1.89,7.12,0.9962,0.0017,-0.0165,0.0622,18.223,2.32,666.393,17.989,2.31,656.647,605.395,81.691,21605.326,0
2025-05-30 17:27:58.706,0.127,-0.027,9.835,0.466,0.047,19.548,-0.0213,0.0213,0.0298,-0.0253,0.0143,0.0119,33,0.11,-1.29,7.15,0.9963,0.0017,-0.0112,0.0624,18.231,2.321,666.703,17.996,2.31,656.968,606.295,81.807,21638.174,0
2025-05-30 17:27:58.761,0.135,-0.02,9.867,0.516,0.086,19.579,-0.0298,0.0959,-0.032,-0.0295,0.0893,-0.0278,33,0.3,-1.54,7.06,0.9963,0.0034,-0.0133,0.0617,18.237,2.322,667.014,18.004,2.31,657.29,607.195,81.923,21671.039,0
2025-05-30 17:27:58.817,0.111,-0.018,9.871,0.376,0.072,19.585,0.0469,0.0469,0.0107,0.0391,0.0527,0.0066,33,0.2,-0.86,7.09,0.9964,0.0022,-0.0074,0.0619,18.241,2.324,667.325,18.012,2.311,657.611,608.096,82.038,21703.92,0
2025-05-30 17:27:58.871,0.147,-0.018,9.881,0.516,0.076,19.594,0.0,-0.0234,0.0021,0.0038,-0.0143,0.0024,33,0.23,-1.47,7.09,0.9963,0.0028,-0.0127,0.062,18.245,2.325,667.636,18.019,2.311,657.932,608.997,82.154,21736.816,0
2025-05-30 17:27:58.924,0.135,-0.014,9.844,0.539,0.159,19.555,-0.0277,0.0021,-0.0149,-0.0247,0.0021,-0.0134,33,0.69,-1.68,7.04,0.9963,0.0069,-0.0143,0.0616,18.253,2.329,667.946,18.027,2.312,658.252,609.898,82.269,21769.729,0
2025-05-30 17:27:58.978,0.147,-0.04,9.851,0.557,0.031,19.562,-0.0128,-0.0618,0.0,-0.0141,-0.0538,-0.0015,33,0.09,-1.71,7.05,0.9963,0.0017,-0.0149,0.0616,18.263,2.331,668.255,18.035,2.313,658.572,610.8,82.385,21802.656,0
2025-05-30 17:27:59.035,0.142,-0.027,9.855,0.468,0.059,19.568,-0.0447,-0.0107,0.0,-0.0418,-0.0134,-0.0003,33,0.18,-1.22,7.04,0.9964,0.0022,-0.0105,0.0615,18.27,2.331,668.564,18.042,2.313,658.892,611.702,82.501,21835.602,0
2025-05-30 17:27:59.084,0.135,-0.018,9.842,0.543,0.078,19.553,-0.0064,0.032,-0.0426,-0.01,0.029,-0.0386,33,0.24,-1.7,6.93,0.9964,0.003,-0.0147,0.0606,18.277,2.332,668.873,18.05,2.314,659.212,612.605,82.616,21868.562,0
2025-05-30 17:27:59.139,0.111,-0.04,9.867,0.423,0.042,19.581,0.0469,0.0085,-0.1364,0.0411,0.0121,-0.1268,33,0.15,-1.13,6.57,0.9966,0.0019,-0.0098,0.0575,18.283,2.333,669.181,18.057,2.314,659.531,613.508,82.732,21901.539,0
2025-05-30 17:27:59.195,0.144,-0.027,9.864,0.591,0.098,19.574,0.0874,-0.0895,0.0618,0.0826,-0.0778,0.0427,33,0.4,-1.93,6.69,0.9964,0.0045,-0.0166,0.0585,18.29,2.334,669.49,18.065,2.315,659.85,614.411,82.848,21934.531,0
2025-05-30 17:27:59.247,0.126,-0.029,9.867,0.517,0.035,19.579,-0.0554,-0.066,-0.2131,-0.0417,-0.0657,-0.1877,33,0.05,-1.6,6.16,0.9968,0.0012,-0.0139,0.0539,18.299,2.335,669.798,18.072,2.316,660.168,615.314,82.963,21967.539,0
2025-05-30 17:27:59.305,0.149,-0.043,9.853,0.469,0.12,19.566,0.1278,-0.0277,0.066,0.1108,-0.0299,0.0405,33,0.63,-1.18,6.27,0.9967,0.0061,-0.01,0.0549,18.305,2.336,670.106,18.08,2.316,660.487,616.218,83.079,22000.562,0
2025-05-30 17:27:59.355,0.147,-0.038,9.86,0.507,0.091,19.572,0.0916,0.0362,-0.032,0.0934,0.0312,-0.0249,33,0.43,-1.42,6.21,0.9967,0.0044,-0.0122,0.0543,18.311,2.339,670.414,18.088,2.317,660.805,617.123,83.195,22033.604,0
2025-05-30 17:27:59.412,0.151,-0.011,9.838,0.569,0.021,19.55,-0.0682,0.0128,-0.0362,-0.0521,0.0162,-0.0353,33,-0.14,-1.76,6.13,0.9968,-0.0004,-0.0154,0.0535,18.32,2.34,670.72,18.095,2.318,661.122,618.027,83.311,22066.66,0
2025-05-30 17:27:59.464,0.144,-0.022,9.849,0.494,0.14,19.562,0.1214,0.0256,0.1193,0.104,0.0262,0.1037,33,0.62,-1.36,6.41,0.9967,0.0061,-0.0116,0.0561,18.328,2.341,671.026,18.103,2.319,661.44,618.933,83.427,22099.732,0
2025-05-30 17:27:59.517,0.129,-0.018,9.867,0.509,0.072,19.579,0.0469,-0.0277,0.0959,0.0525,-0.0207,0.0965,33,0.2,-1.53,6.7,0.9965,0.0026,-0.0133,0.0585,18.335,2.344,671.333,18.11,2.32,661.757,619.838,83.543,22132.82,0
2025-05-30 17:27:59.573,0.153,-0.029,9.862,0.561,0.03,19.573,0.0895,0.0874,0.0597,0.0857,0.0781,0.0631,33,0.02,-1.7,6.89,0.9964,0.0011,-0.0148,0.0602,18.343,2.345,671.639,18.118,2.32,662.073,620.744,83.659,22165.924,0
2025-05-30 17:27:59.626,0.124,0.007,9.856,0.441,0.155,19.57,0.0213,0.0533,-0.0426,0.0276,0.0573,-0.0322,33,0.54,-1.17,6.79,0.9965,0.0053,-0.0099,0.0594,18.35,2.347,671.945,18.125,2.321,662.39,621.65,83.775,22199.043,0
2025-05-30 17:27:59.681,0.162,-0.002,9.869,0.538,0.131,19.581,0.0618,0.0575,0.049,0.0583,0.0591,0.0407,33,0.45,-1.51,6.91,0.9964,0.0047,-0.0129,0.0604,18.356,2.352,672.251,18.133,2.322,662.706,622.557,83.891,22232.178,0
2025-05-30 17:27:59.734,0.135,-0.014,9.878,0.525,-0.003,19.59,-0.0639,-0.0831,-0.0511,-0.0518,-0.0673,-0.0421,33,-0.25,-1.6,6.81,0.9964,-0.0014,-0.0141,0.0594,18.364,2.353,672.557,18.14,2.323,663.021,623.464,84.007,22265.328,0
2025-05-30 17:27:59.789,0.149,0.0,9.864,0.564,0.144,19.574,0.0852,-0.0639,0.049,0.0714,-0.0627,0.0397,33,0.52,-1.74,6.9,0.9964,0.0054,-0.0149,0.0604,18.373,2.354,672.863,18.148,2.324,663.337,624.371,84.124,22298.494,0
2025-05-30 17:27:59.842,0.145,-0.027,9.84,0.526,0.013,19.552,-0.0533,-0.0277,-0.1108,-0.0409,-0.0296,-0.0959,33,-0.09,-1.54,6.64,0.9965,-0.0,-0.0135,0.058,18.382,2.355,673.167,18.155,2.325,663.652,625.279,84.24,22331.676,0
2025-05-30 17:27:59.897,0.145,-0.045,9.844,0.5,0.069,19.557,-0.0469,0.0618,0.0682,-0.0464,0.0542,0.0516,33,0.34,-1.38,6.77,0.9965,0.0037,-0.0119,0.0592,18.389,2.354,673.471,18.163,2.326,663.967,626.187,84.356,22364.875,0
2025-05-30 17:27:59.951,0.138,-0.02,9.869,0.53,0.012,19.581,-0.0085,0.0469,-0.0021,-0.0124,0.0492,0.0031,33,-0.14,-1.6,6.8,0.9964,-0.0004,-0.014,0.0593,18.397,2.354,673.775,18.17,2.327,664.281,627.096,84.472,22398.09,0
2025-05-30 17:28:00.002,0.147,-0.025,9.851,0.502,0.099,19.564,-0.0085,0.0383,-0.017,-0.009,0.041,-0.0152,33,0.4,-1.39,6.74,0.9965,0.0042,-0.0119,0.0589,18.404,2.354,674.079,18.178,2.328,664.596,628.005,84.589,22431.32,0
2025-05-30 17:28:00.056,0.124,-0.002,9.828,0.526,0.048,19.539,0.0447,-0.049,0.032,0.0393,-0.0384,0.0271,33,-0.03,-1.66,6.83,0.9964,0.0006,-0.0145,0.0596,18.411,2.355,674.381,18.186,2.329,664.909,628.914,84.705,22464.566,0
2025-05-30 17:28:00.113,0.142,-0.018,9.838,0.486,0.113,19.551,-0.0128,0.0234,-0.032,-0.0077,0.0188,-0.0262,33,0.44,-1.33,6.74,0.9965,0.0046,-0.0113,0.0589,18.418,2.357,674.683,18.193,2.33,665.223,629.824,84.822,22497.828,0
2025-05-30 17:28:00.167,0.149,-0.029,9.88,0.565,0.013,19.591,-0.0277,-0.0298,0.0,-0.0258,-0.0234,-0.0028,33,-0.08,-1.75,6.74,0.9965,0.0002,-0.0153,0.0589,18.426,2.357,674.986,18.201,2.331,665.536,630.734,84.938,22531.105,0
2025-05-30 17:28:00.220,0.142,-0.022,9.846,0.5,0.079,19.558,-0.0341,-0.0085,-0.032,-0.0334,-0.0084,-0.0292,33,0.27,-1.41,6.65,0.9965,0.003,-0.0121,0.0581,18.434,2.357,675.289,18.208,2.331,665.849,631.644,85.055,22564.398,0
2025-05-30 17:28:00.275,0.135,-0.014,9.858,0.61,0.026,19.567,-0.0469,-0.0618,0.0362,-0.0456,-0.0549,0.0295,33,-0.09,-2.09,6.74,0.9964,0.0003,-0.0183,0.0589,18.443,2.357,675.591,18.216,2.332,666.161,632.555,85.172,22597.707,0
2025-05-30 17:28:00.329,0.149,-0.011,9.86,0.537,0.076,19.572,-0.0085,0.017,0.0639,-0.0123,0.0114,0.0603,33,0.18,-1.58,6.9,0.9964,0.0024,-0.0137,0.0603,18.454,2.357,675.893,18.223,2.333,666.474,633.466,85.288,22631.031,0
2025-05-30 17:28:00.382,0.138,-0.038,9.867,0.492,0.005,19.58,0.0554,-0.0852,-0.0341,0.0485,-0.074,-0.0248,33,-0.07,-1.38,6.84,0.9965,0.0001,-0.0121,0.0597,18.461,2.357,676.195,18.231,2.334,666.786,634.378,85.405,22664.371,0
2025-05-30 17:28:00.434,0.156,-0.036,9.837,0.587,0.043,19.547,-0.066,0.0021,-0.0213,-0.0547,-0.0039,-0.0218,33,0.14,-1.83,6.77,0.9964,0.0022,-0.0159,0.0591,18.469,2.356,676.496,18.239,2.335,667.097,635.289,85.522,22697.727,0
2025-05-30 17:28:00.490,0.136,-0.013,9.864,0.455,0.085,19.577,-0.0192,0.0405,0.0043,-0.0228,0.0376,0.0015,33,0.25,-1.18,6.77,0.9965,0.0028,-0.0101,0.0591,18.477,2.357,676.796,18.247,2.335,667.409,636.202,85.638,22731.098,0
2025-05-30 17:28:00.545,0.122,-0.036,9.842,0.527,0.05,19.554,0.0916,-0.0107,0.0149,0.0801,-0.0043,0.0134,33,0.18,-1.68,6.81,0.9964,0.0025,-0.0146,0.0595,18.483,2.358,677.097,18.254,2.336,667.72,637.115,85.755,22764.484,0
2025-05-30 17:28:00.600,0.163,-0.032,9.855,0.525,0.009,19.567,0.0639,-0.0405,0.0298,0.0654,-0.0353,0.028,33,-0.08,-1.42,6.9,0.9964,0.0,-0.0125,0.0603,18.491,2.356,677.397,18.262,2.337,668.03,638.028,85.872,22797.887,0
2025-05-30 17:28:00.652,0.144,-0.05,9.862,0.575,0.049,19.572,-0.0383,-0.0064,0.0043,-0.0281,-0.0077,0.0064,33,0.26,-1.83,6.91,0.9964,0.0032,-0.0159,0.0604,18.5,2.355,677.697,18.27,2.337,668.341,638.941,85.989,22831.305,0
2025-05-30 17:28:00.713,0.158,-0.045,9.853,0.539,-0.012,19.565,-0.0021,-0.0533,-0.0277,-0.0048,-0.0471,-0.0245,33,-0.13,-1.54,6.85,0.9964,-0.0004,-0.0135,0.0598,18.509,2.354,677.997,18.277,2.338,668.651,639.855,86.106,22864.736,0
2025-05-30 17:28:00.766,0.16,-0.023,9.846,0.562,0.103,19.557,-0.0021,0.0107,-0.0469,-0.0025,0.0064,-0.0448,33,0.42,-1.66,6.71,0.9965,0.0045,-0.0143,0.0587,18.518,2.354,678.296,18.285,2.339,668.961,640.769,86.223,22898.184,0
2025-05-30 17:28:00.821,0.126,-0.034,9.851,0.482,0.004,19.564,-0.032,-0.0383,-0.0724,-0.0291,-0.0323,-0.0699,33,-0.1,-1.39,6.52,0.9966,-0.0002,-0.0122,0.0569,18.526,2.355,678.594,18.293,2.339,669.27,641.684,86.34,22931.646,0
2025-05-30 17:28:00.873,0.133,-0.029,9.849,0.52,0.07,19.561,-0.0746,-0.0085,-0.0597,-0.0701,-0.0093,-0.0609,33,0.25,-1.57,6.33,0.9967,0.003,-0.0136,0.0553,18.532,2.354,678.893,18.301,2.34,669.579,642.599,86.457,22965.125,0
2025-05-30 17:28:00.926,0.133,-0.011,9.846,0.413,0.083,19.56,-0.0192,0.0192,-0.0277,-0.0244,0.0179,-0.0312,33,0.23,-0.95,6.24,0.9968,0.0024,-0.0082,0.0545,18.537,2.356,679.191,18.308,2.34,669.888,643.514,86.574,22998.619,0
2025-05-30 17:28:00.982,0.147,-0.032,9.862,0.499,0.041,19.575,-0.0107,0.0533,-0.0064,-0.0121,0.0513,-0.0091,33,0.1,-1.37,6.22,0.9968,0.0016,-0.0119,0.0543,18.541,2.356,679.489,18.316,2.341,670.196,644.43,86.691,23032.129,0
2025-05-30 17:28:01.037,0.156,-0.022,9.851,0.613,0.121,19.56,0.0767,-0.0405,-0.0213,0.0677,-0.0297,-0.0203,33,0.51,-1.99,6.15,0.9967,0.0054,-0.0171,0.0538,18.55,2.358,679.787,18.323,2.341,670.505,645.346,86.808,23065.654,0
2025-05-30 17:28:01.089,0.149,-0.02,9.844,0.537,0.069,19.556,-0.0021,-0.0213,-0.0128,0.0047,-0.0206,-0.0137,33,0.19,-1.58,6.12,0.9968,0.0024,-0.0137,0.0535,18.56,2.36,680.084,18.331,2.342,670.812,646.263,86.925,23099.195,0
2025-05-30 17:28:01.144,0.119,-0.041,9.853,0.418,0.036,19.567,0.0831,0.0064,-0.0724,0.0751,0.0053,-0.0668,33,0.13,-1.07,5.94,0.9969,0.0016,-0.0092,0.0519,18.566,2.361,680.382,18.339,2.343,671.12,647.18,87.042,23132.752,0
2025-05-30 17:28:01.197,0.158,-0.025,9.828,0.541,0.127,19.539,0.1385,0.0298,-0.1747,0.132,0.0289,-0.1641,33,0.57,-1.55,5.47,0.9971,0.0056,-0.0133,0.0479,18.571,2.362,680.678,18.346,2.343,671.427,648.097,87.159,23166.324,0
2025-05-30 17:28:01.251,0.127,-0.016,9.853,0.438,0.053,19.567,0.0043,0.0852,-0.0362,0.0169,0.0812,-0.0492,33,0.08,-1.13,5.34,0.9972,0.0011,-0.0098,0.0467,18.577,2.364,680.974,18.354,2.344,671.734,649.015,87.276,23199.91,0
2025-05-30 17:28:01.306,0.16,-0.029,9.846,0.577,0.028,19.557,-0.0639,-0.032,-0.0128,-0.0559,-0.0191,-0.0166,33,0.01,-1.75,5.3,0.9971,0.0008,-0.0153,0.0463,18.584,2.364,681.27,18.361,2.345,672.041,649.933,87.394,23233.512,0
2025-05-30 17:28:01.360,0.153,-0.025,9.853,0.514,0.113,19.565,0.0362,-0.032,0.0426,0.0269,-0.0291,0.0365,33,0.48,-1.43,5.39,0.9971,0.0048,-0.0123,0.0471,18.592,2.365,681.566,18.369,2.345,672.347,650.851,87.511,23267.129,0
2025-05-30 17:28:01.414,0.131,-0.027,9.833,0.525,-0.006,19.545,-0.049,-0.0511,-0.017,-0.0415,-0.0474,-0.0119,33,-0.2,-1.62,5.37,0.9971,-0.0011,-0.0142,0.0469,18.6,2.366,681.861,18.376,2.346,672.653,651.77,87.628,23300.762,0
2025-05-30 17:28:01.468,0.138,-0.032,9.869,0.536,0.009,19.581,-0.1577,-0.081,0.0021,-0.1462,-0.076,0.0005,33,-0.08,-1.64,5.36,0.9971,-0.0001,-0.0143,0.0468,18.608,2.363,682.156,18.384,2.347,672.958,652.689,87.746,23334.41,0
2025-05-30 17:28:01.524,0.129,-0.052,9.838,0.469,0.05,19.552,0.0469,-0.0575,-0.1619,0.0275,-0.0578,-0.1459,33,0.27,-1.3,4.93,0.9973,0.0029,-0.0112,0.0431,18.614,2.362,682.452,18.391,2.347,673.264,653.609,87.863,23368.074,0
2025-05-30 17:28:01.578,0.135,0.0,9.851,0.592,0.083,19.561,-0.1065,-0.049,-0.017,-0.0932,-0.0483,-0.0301,33,0.16,-1.98,4.84,0.9973,0.0022,-0.0173,0.0423,18.622,2.363,682.746,18.399,2.348,673.569,654.529,87.98,23401.752,0
