timestamp_local,raw_acc_x,raw_acc_y,raw_acc_z,g_acc_x,g_acc_y,g_acc_z,raw_gx,raw_gy,raw_gz,filt_gx,filt_gy,filt_gz,temp,roll,pitch,yaw,q0,q1,q2,q3,vx,vy,vz,vx_filt,vy_filt,vz_filt,px,py,pz,stationary
2025-05-30 17:43:08.462,0.099,0.002,9.881,0.069,0.016,0.051,-0.0341,0.0234,-0.0469,-0.0318,0.0193,-0.0455,35,0.24,-0.86,0.35,0.9983,0.0021,-0.0075,0.0031,-0.017,-0.007,0.037,-0.005,-0.004,0.015,-0.001,-0.004,0.011,0
2025-05-30 17:43:08.516,0.099,-0.029,9.86,-0.032,0.025,0.032,-0.0426,-0.017,-0.0597,-0.0416,-0.0118,-0.0584,35,0.01,-1.45,0.18,0.9982,0.0001,-0.0127,0.0016,-0.016,-0.006,0.039,-0.005,-0.004,0.016,-0.001,-0.004,0.012,0
2025-05-30 17:43:08.569,0.108,0.0,9.851,0.022,-0.021,0.022,-0.0277,0.0149,0.0575,-0.0292,0.0138,0.0457,35,0.45,-1.19,0.3,0.9982,0.0039,-0.0104,0.0027,-0.017,-0.006,0.04,-0.006,-0.005,0.016,-0.002,-0.005,0.012,0
2025-05-30 17:43:08.623,0.088,-0.004,9.881,0.001,0.033,0.052,0.0959,0.0085,0.0383,0.0833,0.0106,0.0389,35,0.11,-1.19,0.43,0.9983,0.001,-0.0104,0.0037,-0.016,-0.006,0.042,-0.006,-0.005,0.017,-0.002,-0.005,0.013,0
2025-05-30 17:43:08.677,0.099,-0.034,9.862,-0.1,-0.018,0.036,0.0,-0.0383,0.1385,0.0082,-0.0319,0.1283,35,0.23,-1.85,0.79,0.9982,0.0021,-0.0161,0.0069,-0.019,-0.005,0.044,-0.007,-0.005,0.018,-0.002,-0.005,0.014,0
2025-05-30 17:43:08.731,0.097,0.004,9.831,-0.026,-0.009,0.003,0.0192,-0.0447,-0.0959,0.018,-0.0419,-0.0736,35,0.4,-1.41,0.58,0.9982,0.0035,-0.0123,0.0051,-0.022,-0.005,0.045,-0.007,-0.005,0.019,-0.003,-0.005,0.015,0
2025-05-30 17:43:08.784,0.077,0.002,9.872,0.088,0.041,0.042,-0.0682,0.0916,-0.0043,-0.0597,0.0798,-0.0114,35,0.1,-0.62,0.55,0.9983,0.0009,-0.0054,0.0048,-0.02,-0.004,0.046,-0.007,-0.005,0.02,-0.003,-0.005,0.016,0
2025-05-30 17:43:08.840,0.101,-0.004,9.824,0.013,0.003,-0.005,0.0149,-0.0234,0.1364,0.0073,-0.0115,0.1214,35,0.28,-1.2,0.89,0.9982,0.0026,-0.0105,0.0078,-0.018,-0.003,0.047,-0.008,-0.005,0.02,-0.003,-0.006,0.017,0
2025-05-30 17:43:08.894,0.081,-0.009,9.849,0.101,-0.014,0.019,0.0895,0.032,-0.1087,0.0812,0.0292,-0.0858,35,0.35,-0.57,0.65,0.9983,0.0031,-0.005,0.0057,-0.015,-0.003,0.047,-0.008,-0.004,0.021,-0.004,-0.006,0.018,0
2025-05-30 17:43:08.947,0.099,0.02,9.851,-0.013,0.045,0.022,-0.1087,-0.0852,-0.1491,-0.0898,-0.0722,-0.143,35,0.17,-1.34,0.24,0.9982,0.0015,-0.0117,0.0021,-0.013,-0.002,0.048,-0.008,-0.004,0.022,-0.004,-0.006,0.019,0
2025-05-30 17:43:09.001,0.11,-0.002,9.887,0.041,-0.075,0.058,0.0149,0.0767,0.0107,0.0043,0.0634,-0.0049,35,0.75,-1.09,0.21,0.9982,0.0066,-0.0095,0.0019,-0.012,-0.002,0.05,-0.008,-0.004,0.023,-0.005,-0.006,0.02,0
2025-05-30 17:43:09.055,0.101,0.0,9.849,-0.014,0.016,0.021,0.0,-0.0234,-0.049,0.0003,-0.0132,-0.0448,35,0.23,-1.35,0.1,0.9982,0.002,-0.0118,0.0009,-0.011,-0.004,0.051,-0.008,-0.004,0.024,-0.005,-0.007,0.022,0
2025-05-30 17:43:09.109,0.097,-0.002,9.851,0.065,-0.039,0.021,-0.0234,0.0128,-0.1193,-0.0212,0.0118,-0.112,35,0.54,-0.87,-0.23,0.9983,0.0047,-0.0076,-0.002,-0.009,-0.005,0.052,-0.008,-0.004,0.025,-0.005,-0.007,0.023,0
2025-05-30 17:43:09.164,0.106,0.002,9.86,-0.01,0.048,0.031,-0.0895,0.0085,0.1193,-0.0828,0.0104,0.096,35,0.05,-1.36,0.05,0.9982,0.0005,-0.0119,0.0004,-0.007,-0.005,0.054,-0.008,-0.004,0.026,-0.006,-0.007,0.024,0
2025-05-30 17:43:09.218,0.077,-0.016,9.838,0.051,0.025,0.008,-0.1172,0.0277,0.0021,-0.1138,0.0275,0.0113,35,0.08,-0.84,0.07,0.9983,0.0007,-0.0073,0.0007,-0.006,-0.003,0.054,-0.008,-0.004,0.026,-0.006,-0.007,0.025,0
2025-05-30 17:43:09.272,0.108,-0.011,9.858,0.03,-0.02,0.029,0.0469,0.0852,-0.115,0.0307,0.081,-0.1026,35,0.37,-1.14,-0.22,0.9983,0.0032,-0.01,-0.0019,-0.004,-0.003,0.055,-0.008,-0.004,0.027,-0.007,-0.007,0.027,0
2025-05-30 17:43:09.322,0.106,-0.005,9.864,-0.063,0.039,0.036,-0.0256,-0.0192,-0.0405,-0.0201,-0.0076,-0.0469,35,0.06,-1.67,-0.35,0.9982,0.0005,-0.0146,-0.0031,-0.005,-0.002,0.057,-0.008,-0.004,0.028,-0.007,-0.008,0.028,0
2025-05-30 17:43:09.377,0.104,-0.005,9.849,0.017,-0.039,0.02,0.0618,-0.0064,-0.0703,0.0535,-0.0049,-0.0682,35,0.52,-1.2,-0.55,0.9982,0.0045,-0.0105,-0.0048,-0.007,-0.002,0.058,-0.008,-0.004,0.029,-0.007,-0.008,0.03,0
2025-05-30 17:43:09.432,0.092,-0.013,9.844,-0.06,0.135,0.017,-0.1981,-0.1257,-0.081,-0.1731,-0.1121,-0.0799,35,-0.54,-1.57,-0.77,0.9982,-0.0048,-0.0137,-0.0068,-0.008,0.001,0.059,-0.008,-0.004,0.03,-0.008,-0.008,0.031,0
2025-05-30 17:43:09.486,0.083,-0.011,9.846,-0.046,0.018,0.017,0.0874,-0.0362,-0.1108,0.0612,-0.0422,-0.1079,35,0.15,-1.44,-1.09,0.9982,0.0012,-0.0126,-0.0095,-0.011,0.004,0.058,-0.008,-0.004,0.031,-0.008,-0.008,0.033,0
2025-05-30 17:43:09.538,0.111,0.007,9.826,0.042,-0.065,-0.003,0.0213,0.0469,0.0724,0.0252,0.0395,0.0542,35,0.74,-1.09,-0.94,0.9982,0.0064,-0.0096,-0.0082,-0.011,0.003,0.058,-0.008,-0.004,0.032,-0.009,-0.008,0.034,0
2025-05-30 17:43:09.593,0.09,-0.007,9.86,-0.007,-0.003,0.031,0.0405,-0.0128,-0.017,0.0388,-0.006,-0.0101,35,0.3,-1.25,-0.96,0.9982,0.0025,-0.011,-0.0084,-0.01,0.001,0.059,-0.008,-0.003,0.032,-0.009,-0.009,0.036,0
2025-05-30 17:43:09.648,0.084,-0.005,9.867,0.075,-0.017,0.037,0.0597,-0.0234,0.0256,0.0575,-0.0201,0.0218,35,0.39,-0.74,-0.9,0.9983,0.0034,-0.0065,-0.0078,-0.008,0.001,0.061,-0.008,-0.003,0.033,-0.009,-0.009,0.038,0
2025-05-30 17:43:09.703,0.074,-0.02,9.831,-0.021,0.002,0.002,0.017,0.0085,0.1236,0.021,0.0072,0.1132,35,0.2,-1.24,-0.57,0.9982,0.0017,-0.0108,-0.005,-0.006,0.001,0.062,-0.008,-0.003,0.034,-0.01,-0.009,0.039,0
2025-05-30 17:43:09.759,0.086,0.022,9.867,-0.01,-0.034,0.039,-0.0447,-0.049,-0.0469,-0.0383,-0.0418,-0.0311,35,0.65,-1.25,-0.67,0.9982,0.0056,-0.0109,-0.0058,-0.007,0.0,0.063,-0.008,-0.003,0.035,-0.01,-0.009,0.041,0
2025-05-30 17:43:09.812,0.092,-0.007,9.874,0.042,-0.004,0.045,0.0916,0.0916,0.0234,0.0785,0.0798,0.0178,35,0.3,-0.98,-0.61,0.9983,0.0026,-0.0086,-0.0053,-0.006,-0.001,0.065,-0.008,-0.003,0.036,-0.011,-0.009,0.043,0
2025-05-30 17:43:09.865,0.095,-0.004,9.835,-0.047,-0.001,0.007,-0.0064,0.0021,0.0234,0.002,0.0115,0.0227,35,0.31,-1.52,-0.54,0.9982,0.0026,-0.0133,-0.0047,-0.006,-0.001,0.066,-0.008,-0.003,0.037,-0.011,-0.009,0.045,0
2025-05-30 17:43:09.920,0.104,-0.027,9.855,-0.02,0.025,0.026,0.0064,-0.1491,-0.1044,0.0058,-0.1315,-0.0919,35,0.02,-1.41,-0.8,0.9982,0.0001,-0.0123,-0.007,-0.007,-0.0,0.066,-0.008,-0.003,0.038,-0.011,-0.01,0.047,0
2025-05-30 17:43:09.971,0.111,0.013,9.847,-0.053,-0.005,0.02,-0.0618,-0.1214,0.049,-0.0551,-0.1209,0.0347,35,0.42,-1.65,-0.71,0.9982,0.0036,-0.0144,-0.0062,-0.009,0.001,0.067,-0.008,-0.003,0.039,-0.012,-0.01,0.048,0
2025-05-30 17:43:10.028,0.092,0.004,9.88,0.03,-0.012,0.05,0.0447,0.0277,0.0767,0.0346,0.0144,0.0723,35,0.41,-1.05,-0.5,0.9983,0.0036,-0.0092,-0.0044,-0.009,0.001,0.069,-0.008,-0.003,0.039,-0.012,-0.01,0.05,0
2025-05-30 17:43:10.082,0.093,-0.02,9.867,-0.039,0.035,0.039,0.0021,-0.0149,0.017,0.0053,-0.0104,0.0224,35,0.0,-1.46,-0.43,0.9982,-0.0,-0.0127,-0.0038,-0.009,0.001,0.071,-0.008,-0.002,0.04,-0.013,-0.01,0.052,0
2025-05-30 17:43:10.136,0.083,-0.027,9.853,0.051,-0.02,0.023,0.0021,0.0362,0.1214,0.0023,0.0331,0.1113,35,0.29,-0.87,-0.12,0.9983,0.0025,-0.0076,-0.001,-0.009,0.002,0.073,-0.008,-0.002,0.041,-0.013,-0.01,0.055,0
2025-05-30 17:43:10.191,0.081,0.029,9.865,-0.04,0.008,0.037,-0.066,-0.0277,0.049,-0.0593,-0.02,0.055,35,0.44,-1.39,0.03,0.9982,0.0039,-0.0122,0.0003,-0.009,0.001,0.074,-0.008,-0.002,0.042,-0.013,-0.01,0.057,0
2025-05-30 17:43:10.244,0.077,0.004,9.847,0.07,0.052,0.017,-0.0703,0.0511,-0.0639,-0.0693,0.0456,-0.0522,35,0.04,-0.73,-0.11,0.9983,0.0003,-0.0064,-0.001,-0.008,0.003,0.075,-0.008,-0.002,0.043,-0.014,-0.01,0.059,0
2025-05-30 17:43:10.297,0.106,0.018,9.864,0.001,0.04,0.035,-0.0575,-0.0447,-0.098,-0.0588,-0.0341,-0.0936,35,0.2,-1.3,-0.38,0.9982,0.0017,-0.0114,-0.0033,-0.006,0.005,0.076,-0.008,-0.002,0.044,-0.014,-0.01,0.061,0
2025-05-30 17:43:10.354,0.09,0.029,9.833,0.006,-0.0,0.004,-0.0937,-0.0128,-0.0703,-0.0904,-0.0134,-0.0728,35,0.49,-1.18,-0.61,0.9982,0.0042,-0.0103,-0.0052,-0.006,0.006,0.076,-0.008,-0.002,0.045,-0.015,-0.01,0.063,0
2025-05-30 17:43:10.405,0.084,-0.029,9.84,-0.014,0.04,0.011,0.0107,-0.0298,0.0618,0.0004,-0.0266,0.0481,35,-0.08,-1.26,-0.46,0.9982,-0.0008,-0.011,-0.004,-0.006,0.007,0.076,-0.008,-0.001,0.046,-0.015,-0.01,0.066,0
2025-05-30 17:43:10.468,0.084,0.02,9.824,0.009,-0.023,-0.005,0.0341,0.0213,-0.0213,0.0306,0.0181,-0.0146,35,0.57,-1.13,-0.51,0.9982,0.005,-0.0099,-0.0044,-0.006,0.007,0.076,-0.008,-0.001,0.047,-0.015,-0.011,0.068,0
2025-05-30 17:43:10.519,0.054,-0.002,9.858,0.077,0.024,0.027,0.0426,0.1236,0.0767,0.0413,0.1146,0.0674,35,0.17,-0.55,-0.31,0.9983,0.0015,-0.0048,-0.0027,-0.004,0.007,0.077,-0.008,-0.001,0.048,-0.016,-0.011,0.07,0
2025-05-30 17:43:10.574,0.093,-0.009,9.842,0.002,0.006,0.013,-0.0128,-0.0533,-0.0043,-0.0075,-0.0349,0.0027,35,0.23,-1.22,-0.3,0.9982,0.002,-0.0107,-0.0026,-0.002,0.008,0.078,-0.008,-0.001,0.049,-0.016,-0.011,0.073,0
2025-05-30 17:43:10.626,0.084,-0.014,9.88,0.116,-0.02,0.049,0.017,0.0597,-0.0618,0.0145,0.0518,-0.0555,35,0.36,-0.5,-0.46,0.9983,0.0031,-0.0044,-0.004,0.001,0.007,0.079,-0.007,-0.0,0.05,-0.017,-0.011,0.075,0
2025-05-30 17:43:10.679,0.083,-0.023,9.847,-0.025,0.029,0.019,-0.0788,-0.1087,-0.0256,-0.0696,-0.091,-0.0288,35,0.02,-1.32,-0.54,0.9982,0.0001,-0.0115,-0.0047,0.003,0.008,0.08,-0.007,-0.0,0.051,-0.017,-0.011,0.078,0
2025-05-30 17:43:10.734,0.11,0.004,9.883,0.014,-0.027,0.055,-0.0234,0.0405,0.0916,-0.0282,0.0289,0.0794,35,0.5,-1.25,-0.32,0.9982,0.0044,-0.0109,-0.0028,0.002,0.008,0.081,-0.007,0.0,0.052,-0.017,-0.011,0.08,0
2025-05-30 17:43:10.788,0.077,-0.047,9.846,0.013,0.033,0.016,-0.032,0.0149,-0.0064,-0.0317,0.0179,0.002,35,-0.14,-1.06,-0.31,0.9983,-0.0013,-0.0093,-0.0027,0.002,0.008,0.082,-0.006,0.0,0.053,-0.018,-0.011,0.083,0
2025-05-30 17:43:10.844,0.09,-0.016,9.858,0.024,0.037,0.029,-0.1427,0.0767,-0.032,-0.1318,0.0724,-0.0288,35,0.01,-1.07,-0.4,0.9983,0.0001,-0.0093,-0.0035,0.003,0.009,0.083,-0.006,0.001,0.053,-0.018,-0.011,0.086,0
2025-05-30 17:43:10.897,0.05,-0.009,9.802,0.029,-0.109,-0.027,0.1491,0.0213,-0.0639,0.1209,0.028,-0.0606,35,0.91,-0.81,-0.58,0.9982,0.0079,-0.0071,-0.005,0.004,0.008,0.083,-0.006,0.001,0.054,-0.018,-0.011,0.088,0
2025-05-30 17:43:10.950,0.106,-0.027,9.84,0.058,-0.018,0.01,-0.0767,0.0575,-0.0447,-0.057,0.0561,-0.0465,35,0.27,-0.97,-0.7,0.9983,0.0023,-0.0085,-0.0061,0.006,0.005,0.082,-0.006,0.001,0.055,-0.018,-0.011,0.091,0
2025-05-30 17:43:11.004,0.079,-0.004,9.867,-0.111,0.001,0.041,-0.0234,-0.1108,-0.0298,-0.0269,-0.0925,-0.0317,35,0.29,-1.8,-0.8,0.9982,0.0025,-0.0157,-0.0069,0.005,0.005,0.083,-0.005,0.001,0.056,-0.019,-0.01,0.094,0
2025-05-30 17:43:11.061,0.093,-0.007,9.86,-0.031,0.011,0.032,-0.0256,-0.066,-0.13,-0.0258,-0.0671,-0.1203,35,0.22,-1.41,-1.14,0.9982,0.0018,-0.0124,-0.01,0.001,0.005,0.085,-0.005,0.001,0.057,-0.019,-0.01,0.097,0
2025-05-30 17:43:11.116,0.068,0.0,9.855,0.036,-0.003,0.025,-0.0192,0.0043,-0.0767,-0.02,-0.0013,-0.0813,35,0.34,-0.87,-1.38,0.9982,0.0029,-0.0077,-0.012,0.001,0.005,0.086,-0.005,0.001,0.058,-0.019,-0.01,0.1,0
2025-05-30 17:43:11.168,0.084,-0.02,9.86,-0.032,0.026,0.031,-0.0213,0.0107,-0.0043,-0.0213,0.011,-0.0121,35,0.05,-1.37,-1.41,0.9982,0.0003,-0.0119,-0.0123,0.002,0.006,0.088,-0.005,0.001,0.059,-0.019,-0.01,0.103,0
2025-05-30 17:43:11.219,0.086,-0.032,9.865,0.056,-0.01,0.035,-0.0341,-0.0085,0.0447,-0.0329,-0.005,0.0389,35,0.2,-0.86,-1.3,0.9982,0.0016,-0.0076,-0.0114,0.002,0.006,0.089,-0.004,0.002,0.06,-0.02,-0.01,0.106,0
2025-05-30 17:43:11.274,0.102,-0.043,9.837,-0.004,0.021,0.008,-0.0298,0.0383,-0.0064,-0.0302,0.0356,-0.0021,35,-0.05,-1.31,-1.3,0.9982,-0.0006,-0.0114,-0.0114,0.004,0.007,0.09,-0.004,0.002,0.06,-0.02,-0.01,0.109,0
2025-05-30 17:43:11.329,0.101,-0.004,9.862,0.036,-0.033,0.032,-0.0043,0.0682,0.0533,-0.007,0.0665,0.0475,35,0.5,-1.06,-1.18,0.9982,0.0042,-0.0093,-0.0103,0.004,0.006,0.091,-0.004,0.002,0.061,-0.02,-0.01,0.112,0
2025-05-30 17:43:11.385,0.072,-0.023,9.849,-0.042,0.019,0.021,0.0575,-0.0895,-0.0064,0.051,-0.0723,-0.0012,35,0.07,-1.35,-1.17,0.9982,0.0005,-0.0118,-0.0102,0.004,0.006,0.092,-0.004,0.002,0.062,-0.02,-0.01,0.115,0
2025-05-30 17:43:11.436,0.086,-0.004,9.851,0.025,0.014,0.021,-0.1321,-0.0021,-0.0128,-0.1139,-0.0076,-0.0118,35,0.22,-1.04,-1.22,0.9982,0.0018,-0.0092,-0.0106,0.004,0.006,0.093,-0.003,0.002,0.063,-0.02,-0.01,0.118,0
2025-05-30 17:43:11.490,0.066,-0.025,9.84,-0.114,0.081,0.014,-0.0149,-0.1342,-0.081,-0.0249,-0.12,-0.0742,35,-0.3,-1.74,-1.42,0.9981,-0.0028,-0.0152,-0.0124,0.002,0.008,0.093,-0.003,0.002,0.064,-0.021,-0.01,0.121,0
2025-05-30 17:43:11.546,0.101,-0.009,9.874,-0.068,0.009,0.047,0.032,-0.1023,-0.017,0.0262,-0.1025,-0.023,35,0.22,-1.67,-1.5,0.9981,0.0017,-0.0146,-0.0131,-0.003,0.01,0.094,-0.003,0.002,0.065,-0.021,-0.01,0.124,0
2025-05-30 17:43:11.598,0.068,-0.014,9.842,-0.003,0.04,0.012,-0.0937,0.0085,0.0213,-0.0819,-0.001,0.0167,35,0.0,-1.1,-1.45,0.9982,-0.0001,-0.0096,-0.0127,-0.005,0.011,0.095,-0.003,0.003,0.066,-0.021,-0.009,0.128,0
2025-05-30 17:43:11.654,0.066,-0.002,9.837,0.004,-0.033,0.007,-0.017,0.0,0.0043,-0.0236,0.0015,0.0053,35,0.51,-1.05,-1.45,0.9982,0.0043,-0.0093,-0.0126,-0.005,0.011,0.095,-0.003,0.003,0.067,-0.021,-0.009,0.131,0
2025-05-30 17:43:11.707,0.104,-0.002,9.835,-0.06,0.033,0.008,-0.0107,-0.0575,-0.0426,-0.0121,-0.0501,-0.038,35,0.12,-1.64,-1.55,0.9981,0.0009,-0.0144,-0.0135,-0.006,0.011,0.095,-0.003,0.003,0.068,-0.021,-0.009,0.134,0
2025-05-30 17:43:11.760,0.072,-0.052,9.844,-0.009,-0.044,0.015,0.1044,-0.0256,0.0597,0.0926,-0.0264,0.0497,35,0.27,-1.16,-1.4,0.9982,0.0023,-0.0102,-0.0122,-0.008,0.01,0.095,-0.004,0.003,0.069,-0.021,-0.009,0.138,0
2025-05-30 17:43:11.814,0.077,-0.007,9.84,0.05,-0.032,0.01,-0.0064,-0.0874,-0.0469,0.0034,-0.0797,-0.0374,35,0.47,-0.84,-1.51,0.9982,0.004,-0.0074,-0.0132,-0.006,0.009,0.095,-0.004,0.004,0.069,-0.022,-0.009,0.141,0
2025-05-30 17:43:11.870,0.057,-0.004,9.828,-0.077,0.075,-0.0,-0.0874,-0.0724,-0.0405,-0.0784,-0.0716,-0.0404,35,-0.14,-1.47,-1.62,0.9981,-0.0014,-0.0128,-0.0142,-0.007,0.01,0.095,-0.004,0.004,0.07,-0.022,-0.009,0.145,0
2025-05-30 17:43:11.923,0.066,-0.002,9.84,-0.009,0.032,0.011,-0.0575,-0.0064,-0.0341,-0.0597,-0.0113,-0.0349,35,0.12,-1.13,-1.73,0.9981,0.0009,-0.0099,-0.0151,-0.009,0.012,0.095,-0.004,0.004,0.071,-0.022,-0.008,0.148,0
2025-05-30 17:43:11.977,0.081,-0.014,9.858,-0.055,-0.07,0.031,-0.0021,-0.0788,0.0447,-0.008,-0.0705,0.0366,35,0.65,-1.48,-1.64,0.9981,0.0055,-0.013,-0.0143,-0.01,0.011,0.096,-0.004,0.004,0.072,-0.022,-0.008,0.152,0
2025-05-30 17:43:12.031,0.079,-0.025,9.855,-0.033,0.043,0.026,-0.0959,-0.066,0.0916,-0.0872,-0.0649,0.0859,35,-0.07,-1.34,-1.38,0.9982,-0.0008,-0.0117,-0.0121,-0.012,0.011,0.097,-0.004,0.004,0.072,-0.022,-0.008,0.156,0
2025-05-30 17:43:12.084,0.074,-0.002,9.871,-0.032,-0.022,0.042,0.0192,-0.0916,0.0128,0.0084,-0.0874,0.0199,35,0.44,-1.3,-1.34,0.9982,0.0037,-0.0114,-0.0117,-0.014,0.011,0.098,-0.005,0.005,0.073,-0.023,-0.008,0.159,0
2025-05-30 17:43:12.136,0.07,-0.02,9.862,0.008,0.005,0.032,0.0639,-0.0405,-0.017,0.0583,-0.0436,-0.0135,35,0.18,-1.05,-1.37,0.9982,0.0015,-0.0092,-0.012,-0.015,0.011,0.1,-0.005,0.005,0.074,-0.023,-0.007,0.163,0
2025-05-30 17:43:12.194,0.081,-0.02,9.847,-0.078,-0.03,0.02,0.0192,0.0,-0.049,0.023,-0.0028,-0.0456,35,0.39,-1.61,-1.5,0.9981,0.0032,-0.0141,-0.0131,-0.017,0.01,0.101,-0.005,0.005,0.075,-0.023,-0.007,0.167,0
2025-05-30 17:43:12.246,0.101,-0.013,9.862,0.073,-0.008,0.032,0.0447,0.0895,-0.017,0.0425,0.0818,-0.0201,35,0.29,-0.85,-1.55,0.9982,0.0025,-0.0074,-0.0136,-0.017,0.009,0.103,-0.006,0.005,0.076,-0.023,-0.007,0.171,0
2025-05-30 17:43:12.303,0.068,-0.007,9.856,-0.066,-0.009,0.028,0.0234,-0.0298,0.0064,0.0252,-0.0171,0.0036,35,0.33,-1.47,-1.54,0.9981,0.0027,-0.0129,-0.0135,-0.017,0.009,0.104,-0.006,0.005,0.076,-0.024,-0.007,0.174,0
2025-05-30 17:43:12.355,0.063,0.011,9.846,0.017,0.006,0.016,-0.0256,-0.0213,-0.0575,-0.0206,-0.0193,-0.0516,35,0.35,-0.96,-1.69,0.9982,0.0029,-0.0084,-0.0148,-0.018,0.009,0.105,-0.006,0.005,0.077,-0.024,-0.006,0.178,0
2025-05-30 17:43:12.409,0.095,-0.005,9.865,-0.064,0.022,0.038,-0.0256,-0.0383,0.0298,-0.0252,-0.0349,0.0215,35,0.16,-1.61,-1.63,0.9981,0.0012,-0.0141,-0.0142,-0.02,0.01,0.105,-0.007,0.005,0.078,-0.024,-0.006,0.182,0
2025-05-30 17:43:12.466,0.065,-0.011,9.864,-0.001,-0.014,0.034,0.0362,-0.0043,0.1108,0.03,-0.0058,0.1017,35,0.34,-1.07,-1.34,0.9982,0.0029,-0.0094,-0.0117,-0.021,0.01,0.107,-0.007,0.006,0.079,-0.025,-0.006,0.186,0
2025-05-30 17:43:12.522,0.099,0.005,9.847,-0.089,-0.03,0.021,0.0575,-0.0554,0.0937,0.0547,-0.0489,0.0943,35,0.53,-1.78,-1.07,0.9981,0.0045,-0.0156,-0.0093,-0.024,0.009,0.108,-0.008,0.006,0.08,-0.025,-0.006,0.19,0
2025-05-30 17:43:12.576,0.074,0.002,9.853,-0.016,-0.026,0.024,0.0405,0.0128,-0.0085,0.0418,0.0082,0.0016,35,0.49,-1.21,-1.06,0.9982,0.0042,-0.0106,-0.0093,-0.026,0.008,0.109,-0.008,0.006,0.081,-0.026,-0.005,0.194,0
2025-05-30 17:43:12.631,0.09,0.005,9.874,0.022,0.129,0.045,-0.1278,0.0447,-0.0618,-0.111,0.0427,-0.0556,35,-0.4,-1.08,-1.21,0.9982,-0.0036,-0.0094,-0.0106,-0.025,0.01,0.111,-0.009,0.006,0.082,-0.026,-0.005,0.198,0
2025-05-30 17:43:12.686,0.093,0.007,9.846,0.02,0.04,0.016,0.0,0.0234,0.0213,-0.0112,0.0269,0.0134,35,0.13,-1.12,-1.18,0.9982,0.001,-0.0098,-0.0103,-0.025,0.015,0.112,-0.009,0.006,0.083,-0.026,-0.005,0.202,0
2025-05-30 17:43:12.738,0.093,-0.007,9.828,-0.02,-0.046,-0.001,-0.0149,0.0405,-0.1917,-0.0147,0.0407,-0.1714,35,0.55,-1.35,-1.68,0.9981,0.0046,-0.0119,-0.0147,-0.025,0.015,0.112,-0.01,0.006,0.084,-0.027,-0.004,0.206,0
2025-05-30 17:43:12.794,0.057,-0.002,9.865,-0.02,0.041,0.036,-0.0533,-0.1044,0.0277,-0.0495,-0.0883,0.0076,35,0.07,-1.14,-1.66,0.9982,0.0005,-0.01,-0.0145,-0.026,0.014,0.113,-0.01,0.007,0.084,-0.027,-0.004,0.211,0
2025-05-30 17:43:12.846,0.095,-0.013,9.855,-0.026,-0.043,0.027,-0.0192,0.0213,-0.0298,-0.0223,0.0119,-0.0263,35,0.5,-1.4,-1.74,0.9981,0.0042,-0.0123,-0.0152,-0.026,0.014,0.114,-0.011,0.007,0.085,-0.028,-0.004,0.215,0
2025-05-30 17:43:12.899,0.07,-0.016,9.874,0.01,0.002,0.045,0.0405,-0.0277,-0.0021,0.0341,-0.0222,-0.0047,35,0.22,-1.04,-1.75,0.9982,0.0017,-0.0091,-0.0153,-0.027,0.013,0.116,-0.011,0.007,0.086,-0.029,-0.003,0.219,0
2025-05-30 17:43:12.956,0.066,-0.007,9.835,-0.012,-0.12,0.007,0.1065,0.0767,0.0469,0.0992,0.0684,0.0415,35,0.98,-1.14,-1.64,0.9981,0.0084,-0.0101,-0.0142,-0.027,0.01,0.117,-0.012,0.007,0.087,-0.029,-0.003,0.224,0
2025-05-30 17:43:13.008,0.086,0.005,9.831,0.014,-0.048,0.002,0.0746,0.0213,-0.0682,0.0769,0.0276,-0.0574,35,0.63,-1.11,-1.79,0.9981,0.0054,-0.0098,-0.0156,-0.027,0.006,0.117,-0.012,0.007,0.088,-0.03,-0.003,0.228,0
2025-05-30 17:43:13.062,0.09,-0.025,9.842,-0.04,0.05,0.014,-0.0852,-0.0852,-0.0554,-0.0691,-0.0724,-0.0558,35,-0.12,-1.44,-1.94,0.9981,-0.0012,-0.0126,-0.017,-0.028,0.006,0.117,-0.013,0.007,0.089,-0.03,-0.002,0.232,0
2025-05-30 17:43:13.116,0.09,-0.007,9.855,0.007,0.003,0.025,-0.0383,0.0,-0.0597,-0.0415,-0.0057,-0.0595,35,0.26,-1.17,-2.12,0.9981,0.0021,-0.0103,-0.0185,-0.029,0.007,0.117,-0.013,0.007,0.09,-0.031,-0.002,0.237,0
2025-05-30 17:43:13.168,0.086,-0.002,9.853,-0.037,-0.096,0.026,0.0362,-0.0107,0.0426,0.0283,-0.0086,0.0322,35,0.87,-1.41,-2.04,0.998,0.0074,-0.0124,-0.0177,-0.03,0.005,0.118,-0.014,0.007,0.091,-0.032,-0.002,0.241,0
2025-05-30 17:43:13.224,0.09,-0.022,9.84,-0.048,-0.045,0.013,0.049,-0.0937,-0.0149,0.0468,-0.0837,-0.0104,35,0.46,-1.49,-2.06,0.9981,0.0038,-0.0131,-0.0179,-0.032,0.001,0.119,-0.014,0.007,0.091,-0.032,-0.001,0.246,0
2025-05-30 17:43:13.279,0.061,-0.011,9.872,-0.014,-0.012,0.043,0.0362,-0.0533,0.0043,0.0372,-0.0547,0.0026,35,0.33,-1.12,-2.05,0.9981,0.0027,-0.0099,-0.0179,-0.033,0.0,0.12,-0.015,0.007,0.092,-0.033,-0.001,0.251,0
2025-05-30 17:43:13.330,0.057,-0.002,9.885,0.15,0.016,0.054,-0.0043,0.1662,0.0277,-0.0002,0.1457,0.025,35,0.22,-0.15,-1.97,0.9982,0.0019,-0.0013,-0.0172,-0.029,0.0,0.122,-0.015,0.006,0.093,-0.034,-0.001,0.255,0
2025-05-30 17:43:13.387,0.079,-0.025,9.851,0.037,0.008,0.021,-0.0256,-0.1001,0.0149,-0.0231,-0.074,0.0157,35,0.13,-0.93,-1.93,0.9981,0.001,-0.0081,-0.0168,-0.024,0.0,0.124,-0.015,0.006,0.094,-0.035,-0.0,0.26,0
2025-05-30 17:43:13.440,0.093,0.013,9.86,-0.082,-0.093,0.034,0.1726,-0.13,0.0511,0.1529,-0.1228,0.0474,35,0.94,-1.71,-1.81,0.998,0.008,-0.0151,-0.0157,-0.025,-0.002,0.125,-0.016,0.006,0.095,-0.035,0.0,0.265,0
2025-05-30 17:43:13.496,0.075,-0.031,9.864,-0.053,-0.067,0.036,0.0043,-0.0149,-0.0447,0.019,-0.0241,-0.0357,35,0.54,-1.44,-1.9,0.9981,0.0045,-0.0127,-0.0165,-0.029,-0.006,0.127,-0.016,0.006,0.096,-0.036,0.0,0.27,0
2025-05-30 17:43:13.549,0.057,-0.027,9.842,-0.07,0.01,0.014,-0.0234,-0.1619,-0.1065,-0.0193,-0.1466,-0.0996,35,0.11,-1.43,-2.17,0.9981,0.0007,-0.0125,-0.019,-0.032,-0.008,0.127,-0.017,0.005,0.097,-0.037,0.001,0.274,0
2025-05-30 17:43:13.603,0.066,-0.007,9.865,0.008,-0.032,0.036,0.0447,-0.0298,0.0298,0.0382,-0.0399,0.0167,35,0.47,-1.03,-2.13,0.9981,0.0039,-0.0091,-0.0186,-0.034,-0.009,0.128,-0.017,0.005,0.098,-0.038,0.001,0.279,0
2025-05-30 17:43:13.655,0.079,-0.023,9.847,-0.043,0.097,0.019,-0.13,-0.0533,-0.0959,-0.1133,-0.0504,-0.0848,35,-0.38,-1.4,-2.36,0.998,-0.0036,-0.0122,-0.0207,-0.035,-0.007,0.129,-0.018,0.005,0.099,-0.039,0.001,0.284,0
2025-05-30 17:43:13.710,0.07,-0.023,9.865,-0.009,0.06,0.036,-0.1023,-0.0043,-0.1193,-0.1035,-0.0073,-0.116,35,-0.16,-1.15,-2.71,0.998,-0.0017,-0.01,-0.0237,-0.036,-0.003,0.13,-0.018,0.004,0.1,-0.04,0.001,0.289,0
2025-05-30 17:43:13.765,0.083,-0.02,9.853,0.035,-0.043,0.023,0.032,0.0831,-0.0128,0.0183,0.0756,-0.0233,35,0.46,-0.96,-2.78,0.998,0.0038,-0.0085,-0.0243,-0.035,-0.003,0.131,-0.019,0.004,0.101,-0.041,0.001,0.294,0
2025-05-30 17:43:13.818,0.075,-0.029,9.849,0.01,-0.024,0.02,0.13,0.0554,0.0597,0.1187,0.059,0.0512,35,0.29,-1.07,-2.63,0.998,0.0024,-0.0094,-0.0229,-0.034,-0.004,0.132,-0.019,0.004,0.102,-0.042,0.002,0.299,0
2025-05-30 17:43:13.873,0.083,0.005,9.846,-0.071,0.019,0.018,-0.1513,-0.0192,-0.2684,-0.1244,-0.0098,-0.2367,35,0.24,-1.59,-3.31,0.9978,0.0017,-0.0139,-0.0289,-0.036,-0.005,0.131,-0.02,0.004,0.103,-0.042,0.002,0.305,0
2025-05-30 17:43:13.926,0.092,-0.022,9.82,0.016,0.035,-0.009,-0.0575,-0.0426,-0.0149,-0.0643,-0.0378,-0.0373,35,-0.01,-1.13,-3.41,0.9978,-0.0004,-0.0098,-0.0298,-0.037,-0.004,0.131,-0.02,0.003,0.103,-0.043,0.002,0.31,0
2025-05-30 17:43:13.981,0.083,-0.013,9.847,-0.034,-0.042,0.019,-0.017,-0.0554,-0.0767,-0.0219,-0.0521,-0.0729,35,0.5,-1.37,-3.64,0.9977,0.004,-0.0121,-0.0317,-0.038,-0.004,0.131,-0.021,0.003,0.104,-0.045,0.002,0.315,0
2025-05-30 17:43:14.034,0.065,-0.023,9.846,-0.007,0.038,0.016,-0.0447,-0.049,0.0511,-0.0426,-0.0477,0.0385,35,-0.03,-1.11,-3.52,0.9978,-0.0006,-0.0097,-0.0307,-0.039,-0.004,0.131,-0.021,0.003,0.105,-0.046,0.002,0.32,0
2025-05-30 17:43:14.089,0.072,-0.007,9.847,-0.026,-0.067,0.019,0.0575,-0.0554,-0.0511,0.0474,-0.0531,-0.0424,35,0.68,-1.26,-3.65,0.9977,0.0055,-0.0112,-0.0318,-0.04,-0.005,0.131,-0.022,0.003,0.106,-0.047,0.002,0.325,0
2025-05-30 17:43:14.143,0.086,-0.022,9.874,0.052,0.002,0.044,0.0277,0.1172,0.1214,0.0296,0.1017,0.1049,35,0.19,-0.89,-3.34,0.9979,0.0014,-0.0078,-0.0292,-0.039,-0.007,0.132,-0.022,0.002,0.107,-0.048,0.003,0.331,0
2025-05-30 17:43:14.196,0.083,-0.032,9.847,-0.029,0.05,0.019,-0.0959,0.0298,0.0341,-0.0834,0.0386,0.041,35,-0.16,-1.34,-3.22,0.9978,-0.0017,-0.0117,-0.0281,-0.038,-0.005,0.133,-0.023,0.002,0.107,-0.049,0.003,0.336,0
2025-05-30 17:43:14.250,0.079,-0.038,9.847,0.011,-0.076,0.018,0.1044,-0.0362,0.0043,0.0855,-0.0272,0.0077,35,0.55,-1.08,-3.2,0.9979,0.0045,-0.0096,-0.028,-0.039,-0.006,0.133,-0.023,0.002,0.108,-0.05,0.003,0.342,0
2025-05-30 17:43:14.355,0.056,-0.02,9.851,0.055,0.006,0.02,0.0639,0.1108,0.0682,0.066,0.0986,0.0619,35,0.17,-0.69,-3.01,0.9979,0.0014,-0.0061,-0.0263,-0.038,-0.008,0.133,-0.024,0.002,0.109,-0.051,0.003,0.347,0
2025-05-30 17:43:14.361,0.061,0.011,9.881,-0.039,-0.014,0.053,-0.0043,-0.0469,0.1257,0.0026,-0.0308,0.1191,35,0.47,-1.27,-2.68,0.998,0.0038,-0.0112,-0.0234,-0.037,-0.008,0.135,-0.024,0.001,0.11,-0.052,0.003,0.352,0
2025-05-30 17:43:14.411,0.074,-0.02,9.872,0.035,0.052,0.042,-0.0277,0.0277,-0.0107,-0.0248,0.0234,0.0021,35,-0.09,-0.91,-2.66,0.998,-0.001,-0.008,-0.0233,-0.037,-0.007,0.137,-0.024,0.001,0.111,-0.054,0.003,0.358,0
2025-05-30 17:43:14.471,0.079,-0.013,9.856,0.006,0.005,0.027,-0.0575,0.0447,0.0767,-0.0544,0.0442,0.0691,35,0.22,-1.11,-2.48,0.998,0.0017,-0.0097,-0.0216,-0.036,-0.005,0.139,-0.025,0.001,0.111,-0.055,0.003,0.364,0
2025-05-30 17:43:14.525,0.081,-0.029,9.86,-0.0,0.058,0.031,0.0277,0.1087,0.0511,0.0194,0.1038,0.0527,35,-0.18,-1.16,-2.31,0.9981,-0.0018,-0.0101,-0.0202,-0.036,-0.004,0.14,-0.025,0.001,0.112,-0.056,0.003,0.369,0
2025-05-30 17:43:14.581,0.074,-0.032,9.837,-0.044,-0.042,0.008,-0.0043,-0.1236,-0.081,-0.002,-0.0993,-0.0678,35,0.38,-1.37,-2.52,0.998,0.0031,-0.0121,-0.022,-0.037,-0.004,0.141,-0.025,0.001,0.113,-0.057,0.003,0.375,0
2025-05-30 17:43:14.634,0.083,0.013,9.855,0.028,-0.009,0.025,0.0107,-0.0703,0.0149,0.0093,-0.0716,0.0065,35,0.45,-1.01,-2.5,0.998,0.0037,-0.0089,-0.0218,-0.038,-0.005,0.141,-0.026,0.0,0.114,-0.059,0.003,0.381,0
2025-05-30 17:43:14.687,0.084,-0.023,9.847,-0.039,0.003,0.019,0.0724,-0.0277,-0.147,0.066,-0.0305,-0.1318,35,0.17,-1.41,-2.87,0.9979,0.0012,-0.0123,-0.0251,-0.038,-0.005,0.142,-0.026,0.0,0.115,-0.06,0.003,0.386,0
2025-05-30 17:43:14.742,0.095,-0.018,9.864,0.026,0.018,0.034,-0.0895,-0.0874,0.1129,-0.074,-0.0801,0.0883,35,0.11,-1.09,-2.62,0.998,0.0007,-0.0095,-0.0229,-0.038,-0.005,0.142,-0.027,0.0,0.116,-0.061,0.003,0.392,0
2025-05-30 17:43:14.797,0.075,-0.023,9.847,-0.056,-0.046,0.02,-0.0511,-0.0298,0.1065,-0.0535,-0.0333,0.1045,35,0.45,-1.45,-2.34,0.998,0.0037,-0.0128,-0.0204,-0.039,-0.006,0.143,-0.027,-0.0,0.116,-0.063,0.003,0.398,0
2025-05-30 17:43:14.850,0.074,-0.009,9.871,0.03,0.011,0.041,0.0149,0.0064,-0.0341,0.008,0.004,-0.0204,35,0.21,-0.94,-2.39,0.9981,0.0016,-0.0083,-0.0209,-0.039,-0.007,0.144,-0.027,-0.0,0.117,-0.064,0.003,0.404,0
2025-05-30 17:43:14.905,0.068,-0.031,9.842,-0.045,0.011,0.013,0.0362,0.0447,0.0298,0.0333,0.0422,0.0246,35,0.08,-1.35,-2.31,0.998,0.0005,-0.0118,-0.0202,-0.04,-0.007,0.145,-0.028,-0.0,0.118,-0.065,0.003,0.41,0
2025-05-30 17:43:14.958,0.081,-0.036,9.867,0.058,-0.046,0.037,0.0746,-0.0192,-0.017,0.0703,-0.0115,-0.0131,35,0.38,-0.82,-2.35,0.9981,0.0032,-0.0072,-0.0205,-0.039,-0.008,0.145,-0.028,-0.001,0.119,-0.067,0.003,0.416,0
2025-05-30 17:43:15.012,0.081,-0.022,9.835,-0.028,0.046,0.006,-0.0788,0.0,0.0639,-0.064,0.0004,0.056,35,-0.07,-1.32,-2.19,0.9981,-0.0009,-0.0115,-0.0191,-0.039,-0.008,0.146,-0.028,-0.001,0.12,-0.068,0.003,0.422,0
2025-05-30 17:43:15.065,0.097,-0.025,9.853,0.041,-0.072,0.024,0.0533,0.0597,-0.0021,0.0414,0.0553,0.0035,35,0.6,-1.01,-2.19,0.9981,0.005,-0.009,-0.0191,-0.038,-0.009,0.147,-0.029,-0.001,0.121,-0.07,0.003,0.428,0
2025-05-30 17:43:15.120,0.081,-0.036,9.844,-0.005,0.002,0.015,0.0149,-0.0107,-0.0639,0.0175,-0.0025,-0.0574,35,0.1,-1.19,-2.34,0.998,0.0007,-0.0104,-0.0205,-0.037,-0.01,0.147,-0.029,-0.001,0.121,-0.071,0.003,0.434,0
2025-05-30 17:43:15.172,0.075,-0.022,9.86,0.039,-0.068,0.03,0.0,-0.0064,0.0064,0.0016,-0.0044,-0.0002,35,0.59,-0.9,-2.35,0.9981,0.005,-0.008,-0.0205,-0.036,-0.012,0.148,-0.029,-0.002,0.122,-0.073,0.003,0.44,0
2025-05-30 17:43:15.229,0.097,-0.016,9.858,0.052,-0.007,0.028,0.0341,0.1342,0.0916,0.0307,0.1219,0.0822,35,0.27,-0.95,-2.11,0.9981,0.0022,-0.0084,-0.0184,-0.034,-0.014,0.149,-0.029,-0.002,0.123,-0.074,0.003,0.446,0
2025-05-30 17:43:15.283,0.081,-0.016,9.851,-0.077,0.023,0.024,-0.0341,-0.0533,-0.1854,-0.0277,-0.0342,-0.1588,35,0.09,-1.61,-2.56,0.998,0.0005,-0.0141,-0.0223,-0.034,-0.013,0.15,-0.029,-0.002,0.124,-0.076,0.003,0.452,0
2025-05-30 17:43:15.335,0.12,-0.031,9.844,0.064,-0.002,0.014,-0.0234,0.017,-0.0043,-0.024,0.0135,-0.0199,35,0.15,-1.01,-2.62,0.998,0.0011,-0.0089,-0.0229,-0.035,-0.013,0.151,-0.03,-0.003,0.125,-0.077,0.002,0.458,0
2025-05-30 17:43:15.391,0.072,-0.011,9.872,-0.072,-0.073,0.045,0.0426,-0.0575,0.0767,0.0358,-0.0489,0.0668,35,0.69,-1.53,-2.44,0.998,0.0057,-0.0135,-0.0212,-0.035,-0.014,0.152,-0.03,-0.003,0.125,-0.079,0.002,0.465,0
2025-05-30 17:43:15.442,0.065,0.004,9.864,0.017,-0.013,0.034,0.0234,0.0426,-0.0469,0.0246,0.035,-0.0357,35,0.42,-0.97,-2.53,0.998,0.0035,-0.0085,-0.0221,-0.037,-0.016,0.153,-0.03,-0.003,0.126,-0.08,0.002,0.471,0
2025-05-30 17:43:15.499,0.093,-0.009,9.86,-0.028,0.021,0.032,0.0,0.0213,0.0149,0.0023,0.0242,0.0097,35,0.15,-1.4,-2.5,0.998,0.001,-0.0122,-0.0218,-0.037,-0.016,0.155,-0.03,-0.004,0.127,-0.082,0.002,0.477,0
2025-05-30 17:43:15.551,0.063,-0.011,9.864,0.039,-0.041,0.034,0.066,0.0064,-0.0128,0.0596,0.0097,-0.0107,35,0.5,-0.83,-2.53,0.998,0.0042,-0.0073,-0.0221,-0.037,-0.016,0.156,-0.03,-0.004,0.128,-0.083,0.002,0.484,0
2025-05-30 17:43:15.606,0.099,-0.025,9.86,0.016,0.012,0.031,-0.0277,0.0426,0.0213,-0.0191,0.0409,0.0179,35,0.1,-1.17,-2.47,0.998,0.0007,-0.0103,-0.0216,-0.036,-0.017,0.158,-0.031,-0.005,0.129,-0.085,0.001,0.49,0
2025-05-30 17:43:15.660,0.077,-0.007,9.862,-0.015,-0.029,0.033,-0.0788,-0.0682,0.0724,-0.073,-0.0557,0.0668,35,0.45,-1.23,-2.29,0.998,0.0037,-0.0108,-0.02,-0.036,-0.018,0.159,-0.031,-0.005,0.13,-0.086,0.001,0.497,0
2025-05-30 17:43:15.715,0.093,0.002,9.862,0.007,0.073,0.033,0.017,0.0298,-0.0533,0.0079,0.0228,-0.0414,35,-0.09,-1.19,-2.4,0.998,-0.001,-0.0104,-0.021,-0.036,-0.017,0.161,-0.031,-0.005,0.131,-0.088,0.001,0.503,0
2025-05-30 17:43:15.772,0.083,-0.025,9.84,0.012,-0.071,0.011,0.0447,0.017,0.032,0.0409,0.0192,0.0244,35,0.59,-1.1,-2.34,0.998,0.005,-0.0097,-0.0204,-0.036,-0.017,0.161,-0.031,-0.006,0.132,-0.089,0.001,0.51,0
2025-05-30 17:43:15.821,0.07,-0.005,9.853,-0.003,0.05,0.023,-0.0107,-0.0107,0.0788,-0.0056,-0.0061,0.0732,35,0.0,-1.11,-2.12,0.9981,-0.0002,-0.0097,-0.0185,-0.036,-0.017,0.162,-0.031,-0.006,0.133,-0.091,0.0,0.516,0
2025-05-30 17:43:15.878,0.066,-0.013,9.84,-0.003,-0.055,0.011,0.0043,-0.0256,0.0405,0.0032,-0.0221,0.0436,35,0.57,-1.09,-2.01,0.9981,0.0048,-0.0096,-0.0175,-0.036,-0.017,0.162,-0.031,-0.006,0.133,-0.092,0.0,0.523,0
2025-05-30 17:43:15.928,0.061,0.004,9.862,0.002,0.047,0.032,0.0213,-0.0234,0.0426,0.0194,-0.0217,0.0425,35,0.07,-1.03,-1.87,0.9981,0.0004,-0.009,-0.0164,-0.036,-0.017,0.163,-0.031,-0.007,0.134,-0.094,-0.0,0.53,0
2025-05-30 17:43:15.985,0.07,-0.018,9.842,-0.0,-0.056,0.013,-0.0234,0.0618,-0.1108,-0.0193,0.055,-0.0956,35,0.54,-1.1,-2.16,0.9981,0.0046,-0.0097,-0.0188,-0.036,-0.018,0.164,-0.032,-0.007,0.135,-0.096,-0.001,0.537,0
2025-05-30 17:43:16.040,0.054,-0.011,9.872,0.033,0.068,0.042,-0.0511,0.0341,0.1193,-0.0481,0.0377,0.0976,35,-0.14,-0.81,-1.87,0.9982,-0.0013,-0.007,-0.0163,-0.035,-0.017,0.164,-0.032,-0.007,0.136,-0.097,-0.001,0.543,0
2025-05-30 17:43:16.091,0.081,0.007,9.847,0.03,0.023,0.018,-0.032,0.0533,0.0362,-0.0337,0.0533,0.0422,35,0.23,-0.98,-1.76,0.9982,0.0019,-0.0086,-0.0153,-0.033,-0.015,0.165,-0.032,-0.008,0.137,-0.099,-0.001,0.55,0
2025-05-30 17:43:16.147,0.072,-0.004,9.876,-0.046,-0.069,0.048,0.0767,0.032,0.0,0.0655,0.0357,0.004,35,0.7,-1.37,-1.75,0.9981,0.006,-0.0121,-0.0152,-0.034,-0.016,0.166,-0.032,-0.008,0.138,-0.1,-0.002,0.557,0
2025-05-30 17:43:16.199,0.097,-0.013,9.862,0.006,0.017,0.033,-0.0064,-0.0021,0.0213,0.0007,0.0032,0.0194,35,0.15,-1.22,-1.68,0.9981,0.0012,-0.0107,-0.0147,-0.035,-0.018,0.168,-0.032,-0.008,0.139,-0.102,-0.002,0.564,0
2025-05-30 17:43:16.254,0.07,-0.025,9.837,0.06,0.025,0.006,-0.0937,-0.0362,-0.1108,-0.0844,-0.0307,-0.098,35,0.03,-0.74,-1.96,0.9981,0.0001,-0.0065,-0.0172,-0.033,-0.017,0.169,-0.032,-0.008,0.14,-0.103,-0.003,0.571,0
2025-05-30 17:43:16.309,0.063,0.005,9.865,-0.023,0.007,0.036,-0.0426,-0.0192,-0.0937,-0.0469,-0.0188,-0.0944,35,0.31,-1.19,-2.24,0.9981,0.0025,-0.0105,-0.0196,-0.032,-0.017,0.17,-0.032,-0.009,0.141,-0.105,-0.003,0.578,0
2025-05-30 17:43:16.361,0.084,-0.016,9.847,0.013,0.08,0.018,0.0128,0.0107,0.0788,0.0067,0.0093,0.0613,35,-0.24,-1.1,-2.05,0.9981,-0.0023,-0.0096,-0.018,-0.033,-0.015,0.17,-0.032,-0.009,0.142,-0.107,-0.003,0.585,0
2025-05-30 17:43:16.416,0.09,-0.013,9.846,-0.018,-0.02,0.017,0.0192,-0.0362,0.0447,0.0178,-0.0301,0.0462,35,0.37,-1.31,-1.93,0.9981,0.003,-0.0115,-0.0169,-0.033,-0.013,0.17,-0.032,-0.009,0.142,-0.108,-0.004,0.592,0
2025-05-30 17:43:16.475,0.088,-0.022,9.871,0.038,0.075,0.041,-0.0533,0.0085,0.0,-0.0463,0.0062,0.0044,35,-0.24,-0.98,-1.91,0.9981,-0.0022,-0.0085,-0.0167,-0.032,-0.012,0.171,-0.032,-0.009,0.143,-0.11,-0.004,0.599,0
2025-05-30 17:43:16.530,0.068,-0.023,9.846,-0.001,0.017,0.016,-0.0831,0.0085,-0.0043,-0.0795,0.0099,-0.0036,35,0.09,-1.09,-1.93,0.9981,0.0006,-0.0096,-0.0169,-0.031,-0.01,0.172,-0.032,-0.009,0.144,-0.111,-0.005,0.607,0
2025-05-30 17:43:16.584,0.068,-0.018,9.838,0.023,-0.117,0.01,0.1023,0.0447,-0.0085,0.084,0.0428,-0.0082,35,0.9,-0.95,-1.97,0.9981,0.0077,-0.0084,-0.0171,-0.03,-0.013,0.172,-0.032,-0.009,0.145,-0.113,-0.005,0.614,0
2025-05-30 17:43:16.637,0.066,-0.004,9.835,0.023,-0.017,0.005,0.0149,0.0447,0.0149,0.0217,0.0461,0.0124,35,0.4,-0.94,-1.92,0.9981,0.0034,-0.0083,-0.0167,-0.029,-0.016,0.172,-0.032,-0.009,0.146,-0.115,-0.006,0.621,0
2025-05-30 17:43:16.693,0.086,-0.014,9.874,-0.061,0.042,0.047,-0.0447,-0.0575,-0.1896,-0.0382,-0.0456,-0.1696,35,-0.01,-1.55,-2.4,0.998,-0.0004,-0.0135,-0.0209,-0.03,-0.015,0.173,-0.032,-0.009,0.147,-0.116,-0.006,0.628,0
2025-05-30 17:43:16.747,0.077,-0.016,9.88,0.052,-0.01,0.05,0.0107,0.0874,0.1001,0.0057,0.0756,0.073,35,0.29,-0.84,-2.19,0.9981,0.0024,-0.0073,-0.0192,-0.03,-0.013,0.175,-0.032,-0.01,0.147,-0.118,-0.007,0.636,0
2025-05-30 17:43:16.801,0.084,-0.038,9.88,-0.011,-0.017,0.051,0.0724,0.0256,-0.0362,0.0656,0.0321,-0.0255,35,0.2,-1.24,-2.26,0.9981,0.0016,-0.0109,-0.0198,-0.029,-0.013,0.177,-0.032,-0.01,0.148,-0.119,-0.007,0.643,0
2025-05-30 17:43:16.853,0.056,-0.016,9.865,0.064,0.058,0.035,-0.1513,0.0107,0.0724,-0.1297,0.0144,0.0625,35,-0.11,-0.64,-2.09,0.9981,-0.0011,-0.0055,-0.0182,-0.027,-0.012,0.179,-0.032,-0.01,0.149,-0.121,-0.008,0.651,0
2025-05-30 17:43:16.907,0.07,-0.004,9.865,0.005,0.058,0.036,-0.1044,-0.0064,0.0213,-0.107,-0.0027,0.0252,35,-0.04,-1.07,-2.02,0.9981,-0.0005,-0.0093,-0.0176,-0.026,-0.009,0.181,-0.031,-0.01,0.15,-0.123,-0.008,0.658,0
2025-05-30 17:43:16.961,0.065,-0.023,9.86,-0.053,-0.02,0.032,-0.081,-0.1257,-0.0916,-0.0837,-0.1118,-0.0801,35,0.3,-1.38,-2.26,0.998,0.0024,-0.0121,-0.0197,-0.027,-0.008,0.182,-0.031,-0.01,0.151,-0.124,-0.009,0.666,0
2025-05-30 17:43:17.014,0.095,-0.011,9.844,0.075,0.025,0.013,0.0,0.0213,-0.0895,-0.0085,0.0096,-0.0887,35,0.11,-0.8,-2.51,0.998,0.0008,-0.007,-0.0219,-0.026,-0.007,0.183,-0.031,-0.01,0.152,-0.126,-0.009,0.673,0
2025-05-30 17:43:17.068,0.07,-0.032,9.858,-0.084,-0.016,0.031,0.0298,-0.0852,0.0277,0.0259,-0.0742,0.0159,35,0.23,-1.58,-2.47,0.998,0.0017,-0.0139,-0.0215,-0.026,-0.006,0.183,-0.031,-0.01,0.153,-0.127,-0.01,0.681,0
2025-05-30 17:43:17.124,0.083,-0.022,9.846,0.016,0.015,0.016,-0.0341,-0.017,-0.0746,-0.0282,-0.0212,-0.0657,35,0.11,-1.07,-2.65,0.998,0.0007,-0.0094,-0.0232,-0.029,-0.006,0.184,-0.031,-0.009,0.154,-0.129,-0.01,0.689,0
2025-05-30 17:43:17.177,0.074,-0.031,9.856,-0.062,-0.059,0.029,0.0107,0.0149,-0.0383,0.0067,0.0129,-0.0413,35,0.49,-1.48,-2.78,0.9979,0.004,-0.013,-0.0242,-0.03,-0.008,0.184,-0.031,-0.009,0.155,-0.13,-0.011,0.696,0
2025-05-30 17:43:17.230,0.077,-0.022,9.864,-0.019,0.055,0.035,-0.098,-0.0831,-0.1278,-0.0876,-0.0719,-0.1194,35,-0.12,-1.25,-3.11,0.9979,-0.0014,-0.0109,-0.0272,-0.032,-0.008,0.186,-0.031,-0.009,0.156,-0.132,-0.011,0.704,0
2025-05-30 17:43:17.284,0.093,0.004,9.896,0.058,-0.045,0.066,0.0703,0.1342,-0.017,0.0544,0.1152,-0.0275,35,0.6,-0.89,-3.2,0.9979,0.0051,-0.008,-0.0279,-0.03,-0.008,0.188,-0.031,-0.009,0.157,-0.133,-0.011,0.712,0
2025-05-30 17:43:17.338,0.079,-0.014,9.86,-0.014,-0.005,0.031,0.0447,-0.0192,-0.0575,0.0456,-0.0042,-0.0547,35,0.27,-1.23,-3.35,0.9978,0.002,-0.0108,-0.0293,-0.029,-0.009,0.19,-0.031,-0.009,0.158,-0.135,-0.012,0.72,0
2025-05-30 17:43:17.394,0.048,-0.011,9.869,0.042,0.036,0.038,-0.0831,-0.0256,-0.0703,-0.0703,-0.0219,-0.0689,35,0.05,-0.72,-3.55,0.9978,0.0002,-0.0063,-0.031,-0.028,-0.008,0.192,-0.031,-0.009,0.159,-0.136,-0.012,0.728,0
2025-05-30 17:43:17.448,0.074,0.014,9.837,0.012,-0.028,0.007,0.0639,0.0405,0.0874,0.0504,0.0358,0.0715,35,0.57,-1.05,-3.35,0.9978,0.0047,-0.0093,-0.0292,-0.026,-0.008,0.193,-0.031,-0.009,0.16,-0.138,-0.013,0.736,0
2025-05-30 17:43:17.499,0.07,-0.025,9.847,0.014,0.037,0.018,-0.0213,0.0362,0.0554,-0.0142,0.0377,0.0568,35,-0.04,-1.01,-3.18,0.9979,-0.0006,-0.0088,-0.0278,-0.026,-0.007,0.193,-0.03,-0.009,0.161,-0.139,-0.013,0.744,0
2025-05-30 17:43:17.555,0.079,-0.011,9.846,-0.009,0.012,0.016,-0.1129,0.0149,-0.0554,-0.1032,0.0188,-0.0444,35,0.19,-1.2,-3.31,0.9978,0.0013,-0.0105,-0.0289,-0.026,-0.007,0.192,-0.03,-0.009,0.162,-0.141,-0.014,0.752,0
2025-05-30 17:43:17.611,0.084,-0.045,9.828,-0.018,0.091,-0.001,-0.0234,-0.0618,0.0128,-0.0315,-0.0522,0.0069,35,-0.47,-1.28,-3.28,0.9978,-0.0044,-0.0111,-0.0287,-0.026,-0.004,0.192,-0.03,-0.009,0.163,-0.143,-0.014,0.76,0
2025-05-30 17:43:17.664,0.075,-0.004,9.831,-0.048,0.035,0.003,0.0043,-0.0874,-0.066,0.0006,-0.0823,-0.0589,35,0.1,-1.41,-3.46,0.9978,0.0005,-0.0123,-0.0302,-0.028,-0.001,0.192,-0.03,-0.009,0.164,-0.144,-0.015,0.768,0
2025-05-30 17:43:17.719,0.07,0.0,9.835,0.013,-0.033,0.005,0.032,-0.0213,0.0788,0.0287,-0.0258,0.0649,35,0.51,-1.02,-3.28,0.9979,0.0042,-0.0091,-0.0287,-0.029,-0.001,0.192,-0.03,-0.008,0.164,-0.146,-0.015,0.777,0
2025-05-30 17:43:17.774,0.061,-0.02,9.881,-0.02,0.083,0.052,-0.0895,-0.0383,-0.0703,-0.0778,-0.0355,-0.057,35,-0.28,-1.16,-3.44,0.9978,-0.0027,-0.0101,-0.03,-0.029,0.0,0.193,-0.03,-0.008,0.165,-0.147,-0.015,0.785,0
2025-05-30 17:43:17.826,0.102,-0.041,9.871,-0.047,-0.025,0.043,-0.0043,-0.081,0.0256,-0.0117,-0.0749,0.0171,35,0.23,-1.56,-3.4,0.9978,0.0016,-0.0137,-0.0297,-0.03,0.002,0.195,-0.03,-0.008,0.166,-0.149,-0.016,0.793,0
2025-05-30 17:43:17.879,0.108,-0.011,9.856,0.075,-0.101,0.027,0.2152,0.0511,0.0618,0.1924,0.0401,0.0571,35,0.85,-0.88,-3.23,0.9979,0.0072,-0.0079,-0.0282,-0.029,-0.001,0.197,-0.03,-0.008,0.167,-0.15,-0.016,0.802,0
2025-05-30 17:43:17.936,0.09,-0.018,9.851,-0.033,0.007,0.023,-0.0852,-0.1065,-0.0405,-0.0576,-0.0903,-0.0309,35,0.18,-1.4,-3.31,0.9978,0.0012,-0.0123,-0.0289,-0.028,-0.004,0.198,-0.03,-0.008,0.168,-0.152,-0.017,0.81,0
2025-05-30 17:43:17.986,0.072,-0.025,9.84,0.052,0.002,0.01,0.0043,0.0213,0.0426,-0.002,0.0117,0.0351,35,0.17,-0.8,-3.21,0.9979,0.0012,-0.007,-0.0281,-0.028,-0.004,0.198,-0.03,-0.007,0.169,-0.153,-0.017,0.818,0
2025-05-30 17:43:18.042,0.081,-0.031,9.862,-0.017,0.019,0.033,-0.0383,0.0405,0.0064,-0.0348,0.0392,0.0091,35,0.03,-1.26,-3.19,0.9979,-0.0,-0.011,-0.0278,-0.026,-0.004,0.199,-0.03,-0.007,0.17,-0.155,-0.017,0.827,0
2025-05-30 17:43:18.094,0.043,-0.022,9.871,0.067,0.013,0.04,-0.0639,0.0724,-0.0937,-0.0611,0.0707,-0.0837,35,0.12,-0.55,-3.43,0.9979,0.0009,-0.0048,-0.03,-0.025,-0.004,0.2,-0.03,-0.007,0.171,-0.156,-0.018,0.835,0
2025-05-30 17:43:18.148,0.077,0.007,9.862,0.035,0.006,0.032,0.0021,0.0469,0.0,-0.0043,0.0508,-0.0086,35,0.33,-0.93,-3.46,0.9978,0.0026,-0.0082,-0.0302,-0.022,-0.004,0.202,-0.029,-0.007,0.172,-0.157,-0.018,0.844,0
2025-05-30 17:43:18.203,0.099,-0.009,9.878,-0.045,0.03,0.05,-0.0533,-0.0213,-0.1044,-0.0485,-0.0125,-0.095,35,0.1,-1.53,-3.73,0.9977,0.0004,-0.0134,-0.0325,-0.022,-0.003,0.204,-0.029,-0.007,0.173,-0.159,-0.018,0.853,0
2025-05-30 17:43:18.259,0.102,0.009,9.862,0.01,-0.02,0.033,-0.0085,-0.0298,-0.0192,-0.0126,-0.0265,-0.0269,35,0.49,-1.23,-3.81,0.9977,0.0039,-0.0109,-0.0333,-0.023,-0.002,0.206,-0.029,-0.007,0.174,-0.16,-0.019,0.861,0
2025-05-30 17:43:18.312,0.077,-0.013,9.862,0.039,0.058,0.032,-0.0149,0.0469,0.0298,-0.0148,0.0411,0.024,35,-0.09,-0.91,-3.73,0.9977,-0.001,-0.0079,-0.0326,-0.022,-0.001,0.207,-0.029,-0.007,0.175,-0.162,-0.019,0.87,0
2025-05-30 17:43:18.365,0.056,-0.013,9.871,-0.001,-0.103,0.042,0.1555,0.0149,0.032,0.1384,0.0191,0.031,35,0.85,-1.02,-3.66,0.9977,0.0072,-0.0091,-0.0319,-0.021,-0.002,0.209,-0.029,-0.007,0.176,-0.163,-0.019,0.879,0
2025-05-30 17:43:18.419,0.09,-0.004,9.855,-0.009,0.012,0.026,-0.0469,-0.0256,0.0277,-0.0285,-0.0195,0.0278,35,0.23,-1.26,-3.57,0.9978,0.0017,-0.0111,-0.0311,-0.021,-0.005,0.21,-0.028,-0.007,0.177,-0.165,-0.02,0.888,0
2025-05-30 17:43:18.480,0.081,0.014,9.855,-0.032,-0.031,0.026,-0.0511,-0.1449,-0.081,-0.049,-0.1308,-0.0703,35,0.59,-1.34,-3.78,0.9977,0.0047,-0.0119,-0.033,-0.022,-0.006,0.211,-0.028,-0.007,0.178,-0.166,-0.02,0.897,0
2025-05-30 17:43:18.534,0.065,-0.013,9.858,0.034,-0.017,0.028,0.0831,0.0575,0.0043,0.0698,0.0403,-0.0034,35,0.35,-0.86,-3.78,0.9977,0.0028,-0.0077,-0.033,-0.022,-0.006,0.212,-0.028,-0.007,0.179,-0.167,-0.02,0.906,0
2025-05-30 17:43:18.585,0.077,-0.002,9.855,-0.019,0.04,0.026,-0.0874,0.0639,-0.0916,-0.0718,0.0631,-0.083,35,0.08,-1.25,-4.01,0.9976,0.0003,-0.0109,-0.0351,-0.021,-0.005,0.213,-0.028,-0.006,0.18,-0.169,-0.021,0.915,0
2025-05-30 17:43:18.640,0.056,-0.013,9.856,0.076,-0.012,0.026,-0.0277,0.0767,0.0298,-0.0322,0.0769,0.0184,35,0.32,-0.57,-3.97,0.9977,0.0026,-0.0051,-0.0346,-0.019,-0.004,0.215,-0.028,-0.006,0.181,-0.17,-0.021,0.924,0
2025-05-30 17:43:18.696,0.074,-0.002,9.865,-0.01,0.028,0.036,-0.0618,-0.0234,-0.0639,-0.0589,-0.0118,-0.0559,35,0.15,-1.17,-4.12,0.9976,0.0009,-0.0103,-0.036,-0.017,-0.004,0.216,-0.027,-0.006,0.182,-0.172,-0.021,0.933,0
2025-05-30 17:43:18.751,0.056,0.0,9.858,0.084,-0.013,0.027,-0.0597,0.1044,0.0256,-0.0597,0.0943,0.0172,35,0.4,-0.52,-4.08,0.9977,0.0033,-0.0047,-0.0357,-0.015,-0.003,0.217,-0.027,-0.006,0.183,-0.173,-0.022,0.942,0
2025-05-30 17:43:18.803,0.068,-0.004,9.856,0.026,-0.007,0.027,0.0234,0.0447,-0.0043,0.015,0.0513,-0.0023,35,0.35,-0.94,-4.09,0.9976,0.0027,-0.0083,-0.0357,-0.012,-0.003,0.218,-0.026,-0.006,0.184,-0.174,-0.022,0.951,0
2025-05-30 17:43:18.857,0.084,-0.007,9.853,-0.063,0.017,0.025,-0.0107,-0.0298,-0.0895,-0.0082,-0.0202,-0.081,35,0.18,-1.54,-4.31,0.9975,0.0011,-0.0136,-0.0377,-0.013,-0.003,0.219,-0.026,-0.006,0.185,-0.176,-0.022,0.96,0
2025-05-30 17:43:18.910,0.093,-0.029,9.862,0.036,-0.003,0.032,0.0192,-0.017,0.1257,0.0163,-0.0158,0.1048,35,0.17,-1.02,-4.01,0.9977,0.0012,-0.009,-0.0351,-0.014,-0.003,0.221,-0.026,-0.006,0.186,-0.177,-0.023,0.97,0
2025-05-30 17:43:18.964,0.038,0.009,9.867,0.048,-0.024,0.037,-0.0618,0.0447,-0.0277,-0.0541,0.0403,-0.0146,35,0.52,-0.62,-4.06,0.9977,0.0043,-0.0056,-0.0355,-0.012,-0.003,0.222,-0.025,-0.006,0.187,-0.178,-0.023,0.979,0
2025-05-30 17:43:19.019,0.056,-0.013,9.838,-0.05,0.036,0.01,-0.0533,-0.0874,0.0043,-0.0535,-0.073,0.0022,35,0.04,-1.3,-4.05,0.9976,-0.0,-0.0114,-0.0354,-0.012,-0.003,0.223,-0.025,-0.006,0.188,-0.179,-0.023,0.988,0
2025-05-30 17:43:19.072,0.075,-0.004,9.867,-0.001,-0.065,0.038,0.0724,-0.0533,0.0043,0.0597,-0.0537,0.0039,35,0.68,-1.13,-4.05,0.9976,0.0056,-0.0101,-0.0353,-0.013,-0.004,0.224,-0.024,-0.006,0.189,-0.181,-0.023,0.998,0
2025-05-30 17:43:19.125,0.079,-0.007,9.829,-0.0,0.032,0.0,-0.0128,0.0085,0.0874,-0.0056,0.0039,0.0788,35,0.09,-1.15,-3.81,0.9977,0.0005,-0.0101,-0.0333,-0.013,-0.005,0.224,-0.024,-0.006,0.191,-0.182,-0.024,1.007,0
2025-05-30 17:43:19.180,0.072,0.002,9.849,0.011,-0.067,0.02,0.0277,0.0021,0.0405,0.0243,0.0039,0.0441,35,0.72,-1.04,-3.7,0.9977,0.006,-0.0093,-0.0323,-0.013,-0.006,0.225,-0.024,-0.006,0.192,-0.183,-0.024,1.017,0
2025-05-30 17:43:19.233,0.075,-0.002,9.835,-0.004,0.052,0.005,-0.0639,0.0021,-0.1257,-0.0552,0.0039,-0.1089,35,0.01,-1.15,-4.0,0.9977,-0.0003,-0.01,-0.0349,-0.013,-0.006,0.225,-0.023,-0.006,0.193,-0.184,-0.024,1.027,0
2025-05-30 17:43:19.289,0.052,-0.025,9.82,0.035,-0.046,-0.01,0.0128,-0.0128,0.0362,0.0059,-0.0096,0.0215,35,0.44,-0.79,-3.94,0.9977,0.0036,-0.007,-0.0344,-0.012,-0.006,0.225,-0.023,-0.006,0.194,-0.185,-0.025,1.036,0
2025-05-30 17:43:19.343,0.092,-0.007,9.889,-0.009,0.008,0.06,-0.0064,0.017,-0.1811,-0.0053,0.016,-0.161,35,0.23,-1.27,-4.4,0.9975,0.0016,-0.0112,-0.0384,-0.011,-0.007,0.226,-0.023,-0.006,0.194,-0.186,-0.025,1.046,0
2025-05-30 17:43:19.396,0.09,-0.016,9.855,0.079,0.007,0.024,0.0021,-0.0213,0.0,0.0013,-0.016,-0.0163,35,0.19,-0.75,-4.45,0.9975,0.0014,-0.0066,-0.0388,-0.009,-0.007,0.228,-0.022,-0.006,0.196,-0.188,-0.025,1.056,0
2025-05-30 17:43:19.450,0.066,-0.013,9.872,-0.007,-0.023,0.043,0.0341,0.0746,0.0043,0.0307,0.0671,0.002,35,0.38,-1.12,-4.44,0.9975,0.003,-0.0099,-0.0388,-0.007,-0.007,0.229,-0.022,-0.006,0.197,-0.189,-0.025,1.066,0
2025-05-30 17:43:19.503,0.084,-0.023,9.871,-0.003,0.045,0.042,0.032,0.0256,-0.0064,0.0317,0.0313,-0.0057,35,-0.07,-1.2,-4.45,0.9975,-0.0011,-0.0104,-0.0389,-0.007,-0.007,0.231,-0.022,-0.006,0.198,-0.19,-0.026,1.075,0
2025-05-30 17:43:19.556,0.075,0.0,9.837,-0.028,-0.033,0.008,0.0064,-0.0788,0.032,0.0088,-0.0663,0.028,35,0.51,-1.29,-4.38,0.9975,0.0041,-0.0115,-0.0382,-0.008,-0.007,0.232,-0.021,-0.006,0.199,-0.191,-0.026,1.085,0
2025-05-30 17:43:19.610,0.093,-0.007,9.864,0.006,0.03,0.034,0.0554,-0.0128,-0.0298,0.0506,-0.0166,-0.0242,35,0.11,-1.2,-4.44,0.9975,0.0005,-0.0105,-0.0388,-0.009,-0.007,0.233,-0.021,-0.006,0.2,-0.192,-0.026,1.095,0
2025-05-30 17:43:19.667,0.084,-0.014,9.869,0.033,-0.092,0.04,0.0383,0.0533,0.115,0.0395,0.0478,0.1009,35,0.78,-0.99,-4.16,0.9976,0.0065,-0.0089,-0.0363,-0.008,-0.008,0.234,-0.02,-0.006,0.201,-0.193,-0.027,1.105,0
2025-05-30 17:43:19.720,0.072,-0.036,9.842,-0.015,-0.014,0.013,-0.0128,-0.0469,-0.0085,-0.0077,-0.0358,0.0022,35,0.2,-1.19,-4.14,0.9976,0.0013,-0.0105,-0.0362,-0.007,-0.011,0.235,-0.02,-0.006,0.202,-0.194,-0.027,1.115,0
2025-05-30 17:43:19.774,0.101,-0.011,9.849,-0.065,-0.049,0.022,0.0064,0.0,0.1704,0.0049,-0.002,0.1534,35,0.55,-1.65,-3.71,0.9977,0.0043,-0.0146,-0.0324,-0.009,-0.012,0.235,-0.02,-0.006,0.203,-0.195,-0.027,1.126,0
2025-05-30 17:43:19.830,0.084,-0.023,9.853,0.0,0.027,0.024,-0.066,0.0064,0.032,-0.0591,0.0071,0.0439,35,0.03,-1.18,-3.58,0.9978,-0.0001,-0.0103,-0.0313,-0.01,-0.012,0.236,-0.019,-0.006,0.204,-0.196,-0.028,1.136,0
2025-05-30 17:43:19.881,0.075,-0.034,9.846,0.048,-0.028,0.015,-0.0895,0.0213,-0.0682,-0.0866,0.0215,-0.0572,35,0.29,-0.85,-3.75,0.9977,0.0023,-0.0075,-0.0328,-0.009,-0.012,0.237,-0.019,-0.007,0.205,-0.197,-0.028,1.146,0
2025-05-30 17:43:19.935,0.077,-0.018,9.846,-0.013,-0.041,0.017,0.13,0.0703,0.0788,0.1082,0.067,0.065,35,0.46,-1.21,-3.56,0.9978,0.0037,-0.0107,-0.0311,-0.008,-0.014,0.236,-0.019,-0.007,0.206,-0.198,-0.028,1.156,0
2025-05-30 17:43:19.990,0.059,-0.011,9.865,0.036,0.009,0.035,0.0533,-0.0064,-0.0107,0.0586,0.0025,-0.0033,35,0.2,-0.82,-3.57,0.9978,0.0016,-0.0072,-0.0311,-0.007,-0.015,0.237,-0.018,-0.007,0.207,-0.199,-0.029,1.167,0
2025-05-30 17:43:20.042,0.07,-0.023,9.874,-0.008,-0.078,0.046,0.179,0.0959,0.0511,0.1668,0.0881,0.0455,35,0.64,-1.14,-3.44,0.9978,0.0053,-0.0101,-0.03,-0.006,-0.017,0.239,-0.018,-0.007,0.208,-0.199,-0.029,1.177,0
2025-05-30 17:43:20.101,0.079,-0.005,9.84,-0.024,0.007,0.011,0.0511,-0.0639,-0.0362,0.0626,-0.0471,-0.0282,35,0.25,-1.29,-3.51,0.9978,0.0018,-0.0113,-0.0306,-0.007,-0.019,0.24,-0.018,-0.008,0.209,-0.2,-0.029,1.187,0
2025-05-30 17:43:20.152,0.079,-0.031,9.871,0.034,-0.039,0.041,0.1747,-0.0426,0.0852,0.1634,-0.0415,0.0737,35,0.37,-0.95,-3.29,0.9979,0.003,-0.0084,-0.0287,-0.006,-0.02,0.24,-0.017,-0.008,0.21,-0.201,-0.03,1.198,0
2025-05-30 17:43:20.205,0.108,-0.025,9.858,-0.029,0.014,0.03,-0.0213,-0.0107,-0.0277,-0.0029,-0.0122,-0.0177,35,0.09,-1.49,-3.33,0.9978,0.0004,-0.013,-0.0291,-0.006,-0.021,0.242,-0.017,-0.008,0.211,-0.202,-0.03,1.208,0
2025-05-30 17:43:20.259,0.065,-0.005,9.881,0.045,-0.013,0.051,0.0128,0.0639,-0.0298,0.0111,0.0579,-0.0288,35,0.37,-0.8,-3.42,0.9978,0.003,-0.0071,-0.0299,-0.006,-0.021,0.244,-0.017,-0.009,0.212,-0.203,-0.031,1.219,0
2025-05-30 17:43:20.315,0.072,-0.038,9.855,-0.015,0.018,0.025,0.0,0.0064,-0.0703,0.001,0.0131,-0.0663,35,-0.0,-1.2,-3.6,0.9978,-0.0003,-0.0105,-0.0315,-0.005,-0.021,0.245,-0.016,-0.009,0.213,-0.204,-0.031,1.23,0
2025-05-30 17:43:20.368,0.057,-0.029,9.837,0.046,-0.053,0.006,0.0298,0.0043,-0.0107,0.0268,0.0067,-0.0164,35,0.46,-0.76,-3.65,0.9978,0.0038,-0.0067,-0.0319,-0.004,-0.022,0.246,-0.016,-0.01,0.214,-0.205,-0.032,1.24,0
2025-05-30 17:43:20.423,0.081,-0.007,9.871,-0.019,0.006,0.042,0.0043,0.0,-0.049,0.0064,0.0022,-0.0459,35,0.25,-1.27,-3.78,0.9977,0.0018,-0.0112,-0.033,-0.002,-0.023,0.247,-0.015,-0.01,0.215,-0.205,-0.032,1.251,0
2025-05-30 17:43:20.482,0.077,-0.014,9.855,0.065,-0.042,0.024,0.1044,-0.0256,-0.0405,0.0945,-0.0212,-0.0412,35,0.48,-0.76,-3.9,0.9977,0.004,-0.0068,-0.034,-0.001,-0.024,0.248,-0.015,-0.01,0.216,-0.206,-0.033,1.262,0
2025-05-30 17:43:20.535,0.07,-0.005,9.828,-0.02,0.015,-0.001,-0.0107,0.0192,0.0554,-0.0003,0.0167,0.0455,35,0.2,-1.21,-3.76,0.9977,0.0014,-0.0106,-0.0329,0.001,-0.025,0.248,-0.015,-0.011,0.217,-0.207,-0.033,1.273,0
2025-05-30 17:43:20.590,0.099,0.005,9.831,-0.021,-0.061,0.004,-0.0128,0.0043,-0.0703,-0.0116,0.0071,-0.0589,35,0.71,-1.39,-3.94,0.9976,0.0058,-0.0123,-0.0344,0.0,-0.027,0.248,-0.014,-0.011,0.218,-0.207,-0.034,1.284,0
2025-05-30 17:43:20.641,0.09,-0.029,9.851,-0.039,0.026,0.023,-0.0618,-0.0895,-0.0277,-0.0569,-0.0783,-0.031,35,0.0,-1.44,-4.02,0.9976,-0.0004,-0.0126,-0.0351,-0.001,-0.028,0.248,-0.014,-0.012,0.218,-0.208,-0.034,1.294,0
2025-05-30 17:43:20.698,0.077,0.014,9.838,0.019,-0.018,0.009,0.0234,0.0341,-0.0639,0.0153,0.0244,-0.0608,35,0.51,-1.03,-4.2,0.9976,0.0041,-0.0091,-0.0367,-0.002,-0.027,0.249,-0.013,-0.012,0.219,-0.209,-0.035,1.305,0
2025-05-30 17:43:20.752,0.052,-0.013,9.842,0.039,0.017,0.012,0.0788,0.0682,0.0043,0.0724,0.0654,-0.0024,35,0.15,-0.76,-4.2,0.9976,0.0011,-0.0067,-0.0367,-0.001,-0.027,0.249,-0.013,-0.013,0.22,-0.209,-0.036,1.316,0
2025-05-30 17:43:20.807,0.07,-0.014,9.864,-0.054,-0.017,0.035,0.0085,-0.0447,-0.0192,0.0148,-0.0322,-0.0177,35,0.34,-1.41,-4.25,0.9975,0.0025,-0.0124,-0.0371,-0.002,-0.027,0.249,-0.013,-0.013,0.221,-0.21,-0.036,1.328,0
2025-05-30 17:43:20.860,0.079,-0.025,9.858,0.042,0.044,0.028,-0.0469,0.0107,0.0447,-0.0408,0.0079,0.0383,35,-0.08,-0.9,-4.14,0.9976,-0.001,-0.0079,-0.0362,-0.002,-0.026,0.25,-0.012,-0.014,0.222,-0.211,-0.037,1.339,0
2025-05-30 17:43:20.911,0.065,-0.009,9.858,-0.001,-0.034,0.029,0.017,0.0256,-0.0298,0.0111,0.0254,-0.0232,35,0.47,-1.07,-4.21,0.9976,0.0038,-0.0095,-0.0368,-0.001,-0.026,0.252,-0.012,-0.014,0.223,-0.211,-0.038,1.35,0
2025-05-30 17:43:20.966,0.077,-0.005,9.856,-0.025,0.07,0.028,-0.0234,-0.0064,0.0149,-0.0201,-0.0016,0.0109,35,-0.12,-1.28,-4.17,0.9976,-0.0015,-0.0112,-0.0365,-0.001,-0.025,0.253,-0.012,-0.014,0.224,-0.212,-0.038,1.361,0
2025-05-30 17:43:21.019,0.068,-0.016,9.867,0.02,0.013,0.037,-0.0852,0.0107,0.0,-0.0788,0.011,0.0009,35,0.15,-0.97,-4.18,0.9976,0.001,-0.0085,-0.0365,-0.002,-0.023,0.254,-0.011,-0.015,0.225,-0.212,-0.039,1.372,0
2025-05-30 17:43:21.075,0.083,-0.014,9.838,-0.062,-0.077,0.011,0.1321,-0.017,0.066,0.1109,-0.0127,0.0593,35,0.69,-1.53,-4.02,0.9976,0.0056,-0.0136,-0.035,-0.004,-0.025,0.255,-0.011,-0.015,0.226,-0.213,-0.04,1.383,0
2025-05-30 17:43:21.128,0.079,-0.005,9.831,0.08,-0.01,0.001,0.0149,0.1768,-0.0447,0.0244,0.1595,-0.0345,35,0.35,-0.68,-4.1,0.9976,0.0028,-0.0061,-0.0358,-0.003,-0.027,0.255,-0.011,-0.015,0.227,-0.214,-0.041,1.395,0
2025-05-30 17:43:21.183,0.075,-0.023,9.869,-0.041,0.001,0.04,0.0064,-0.0767,-0.0362,0.0081,-0.0515,-0.0362,35,0.18,-1.36,-4.2,0.9976,0.0011,-0.012,-0.0367,-0.002,-0.027,0.255,-0.011,-0.016,0.227,-0.214,-0.041,1.406,0
2025-05-30 17:43:21.238,0.093,-0.018,9.84,0.085,-0.016,0.01,-0.0128,0.0383,0.1491,-0.0108,0.0309,0.1304,35,0.31,-0.73,-3.83,0.9977,0.0025,-0.0065,-0.0335,-0.001,-0.027,0.256,-0.01,-0.016,0.228,-0.215,-0.042,1.418,0
2025-05-30 17:43:21.291,0.052,0.005,9.858,-0.07,-0.007,0.03,-0.0043,-0.0469,-0.0533,-0.005,-0.0375,-0.0351,35,0.39,-1.4,-3.94,0.9976,0.003,-0.0124,-0.0344,-0.001,-0.027,0.257,-0.01,-0.016,0.229,-0.215,-0.043,1.429,0
2025-05-30 17:43:21.345,0.074,-0.032,9.831,-0.014,0.017,0.002,0.0085,-0.081,-0.0937,0.0071,-0.075,-0.0881,35,0.03,-1.2,-4.18,0.9976,-0.0001,-0.0105,-0.0365,-0.002,-0.027,0.257,-0.01,-0.017,0.23,-0.216,-0.044,1.441,0
2025-05-30 17:43:21.399,0.068,-0.029,9.838,0.052,-0.08,0.009,0.0618,0.0213,0.0,0.0562,0.0132,-0.009,35,0.62,-0.78,-4.21,0.9976,0.0052,-0.007,-0.0368,-0.001,-0.029,0.257,-0.01,-0.017,0.231,-0.216,-0.045,1.452,0
2025-05-30 17:43:21.452,0.075,-0.031,9.867,0.009,-0.002,0.038,-0.0085,0.0128,-0.0426,-0.0022,0.0144,-0.0394,35,0.16,-1.07,-4.32,0.9976,0.001,-0.0094,-0.0377,0.0,-0.031,0.258,-0.009,-0.017,0.232,-0.217,-0.045,1.464,0
2025-05-30 17:43:21.508,0.079,-0.016,9.849,-0.056,-0.083,0.022,0.066,0.0021,0.0554,0.0591,0.0049,0.0457,35,0.72,-1.47,-4.2,0.9975,0.0058,-0.0131,-0.0366,-0.001,-0.033,0.259,-0.009,-0.018,0.232,-0.217,-0.046,1.475,0
2025-05-30 17:43:21.560,0.092,-0.041,9.847,0.028,-0.032,0.018,0.0277,0.0788,0.0085,0.0307,0.073,0.0121,35,0.27,-1.06,-4.15,0.9976,0.002,-0.0093,-0.0362,-0.002,-0.035,0.259,-0.009,-0.018,0.233,-0.217,-0.047,1.487,0
2025-05-30 17:43:21.614,0.063,-0.004,9.871,-0.008,-0.073,0.042,-0.0469,-0.0511,-0.0341,-0.0392,-0.0372,-0.0297,35,0.73,-1.1,-4.24,0.9976,0.006,-0.0098,-0.037,-0.001,-0.038,0.26,-0.009,-0.019,0.234,-0.218,-0.048,1.499,0
2025-05-30 17:43:21.669,0.074,-0.011,9.885,0.022,0.008,0.055,0.0256,0.0533,0.0213,0.019,0.0458,0.016,35,0.21,-0.99,-4.18,0.9976,0.0015,-0.0087,-0.0366,-0.001,-0.04,0.262,-0.008,-0.019,0.235,-0.218,-0.049,1.51,0
2025-05-30 17:43:21.722,0.072,-0.014,9.874,-0.023,-0.038,0.046,0.0447,0.1108,-0.0192,0.0421,0.1059,-0.0158,35,0.46,-1.24,-4.23,0.9976,0.0036,-0.011,-0.0369,-0.001,-0.041,0.264,-0.008,-0.02,0.236,-0.219,-0.05,1.522,0
2025-05-30 17:43:21.779,0.079,-0.029,9.855,-0.009,0.004,0.025,0.081,-0.0618,0.0192,0.077,-0.0435,0.0155,35,0.13,-1.2,-4.18,0.9976,0.0008,-0.0105,-0.0365,-0.001,-0.042,0.266,-0.008,-0.021,0.237,-0.219,-0.051,1.534,0
2025-05-30 17:43:21.830,0.072,-0.065,9.846,0.057,0.018,0.015,0.0767,0.0703,-0.017,0.0766,0.0605,-0.014,35,-0.16,-0.77,-4.21,0.9976,-0.0017,-0.0067,-0.0368,0.0,-0.042,0.266,-0.008,-0.021,0.238,-0.22,-0.052,1.546,0
2025-05-30 17:43:21.885,0.059,-0.029,9.86,0.031,-0.03,0.03,0.0107,0.1023,0.0447,0.0171,0.0997,0.0387,35,0.33,-0.85,-4.1,0.9976,0.0026,-0.0075,-0.0358,0.002,-0.042,0.267,-0.007,-0.022,0.238,-0.22,-0.053,1.558,0
2025-05-30 17:43:21.941,0.086,-0.023,9.864,-0.014,0.014,0.035,0.0,0.0298,0.1513,0.0016,0.0384,0.1398,35,0.1,-1.27,-3.7,0.9977,0.0006,-0.0111,-0.0323,0.003,-0.043,0.268,-0.007,-0.023,0.239,-0.22,-0.055,1.57,0
2025-05-30 17:43:21.991,0.065,-0.025,9.819,0.035,0.011,-0.012,-0.0703,-0.0554,0.0469,-0.0632,-0.0444,0.056,35,0.11,-0.86,-3.54,0.9978,0.0008,-0.0075,-0.031,0.004,-0.043,0.269,-0.007,-0.023,0.24,-0.221,-0.056,1.582,0
2025-05-30 17:43:22.047,0.083,0.013,9.853,-0.057,-0.0,0.025,-0.032,-0.0831,-0.017,-0.0352,-0.0777,-0.0099,35,0.4,-1.5,-3.58,0.9977,0.0031,-0.0133,-0.0312,0.003,-0.043,0.269,-0.006,-0.024,0.241,-0.221,-0.057,1.594,0
2025-05-30 17:43:22.100,0.081,-0.002,9.856,0.02,0.001,0.027,0.0213,-0.0277,-0.0107,0.0155,-0.0311,-0.0108,35,0.31,-1.04,-3.61,0.9978,0.0024,-0.0092,-0.0315,0.002,-0.043,0.27,-0.006,-0.024,0.242,-0.221,-0.058,1.606,0
2025-05-30 17:43:22.157,0.115,-0.034,9.862,-0.083,0.03,0.036,-0.032,-0.1172,-0.0618,-0.0273,-0.107,-0.0569,35,-0.05,-1.84,-3.76,0.9976,-0.001,-0.0161,-0.0329,0.001,-0.042,0.271,-0.006,-0.025,0.243,-0.222,-0.059,1.618,0
2025-05-30 17:43:22.210,0.084,-0.007,9.864,-0.009,0.075,0.035,-0.1364,0.049,0.0256,-0.1256,0.035,0.0171,35,-0.15,-1.23,-3.72,0.9977,-0.0017,-0.0107,-0.0326,-0.001,-0.039,0.273,-0.006,-0.025,0.244,-0.222,-0.061,1.63,0
2025-05-30 17:43:22.263,0.066,0.007,9.842,-0.019,-0.014,0.013,0.0362,-0.0511,0.0959,0.0199,-0.041,0.0878,35,0.44,-1.19,-3.48,0.9978,0.0036,-0.0105,-0.0304,-0.001,-0.038,0.273,-0.006,-0.026,0.245,-0.222,-0.062,1.642,0
2025-05-30 17:43:22.316,0.079,0.004,9.847,0.063,0.09,0.017,-0.0362,0.0852,-0.0128,-0.0307,0.0742,-0.0029,35,-0.18,-0.78,-3.48,0.9978,-0.0018,-0.0068,-0.0304,0.0,-0.035,0.273,-0.006,-0.026,0.246,-0.222,-0.063,1.655,0
2025-05-30 17:43:22.370,0.102,-0.016,9.842,0.051,0.018,0.012,-0.017,0.0831,0.017,-0.0185,0.0838,0.0149,35,0.12,-0.99,-3.45,0.9978,0.0008,-0.0086,-0.0301,0.003,-0.033,0.273,-0.005,-0.026,0.246,-0.223,-0.065,1.667,0
2025-05-30 17:43:22.426,0.077,-0.009,9.867,-0.031,-0.066,0.039,0.0554,0.0213,0.0469,0.0479,0.0291,0.0435,35,0.65,-1.32,-3.33,0.9978,0.0054,-0.0117,-0.029,0.004,-0.035,0.273,-0.005,-0.027,0.247,-0.223,-0.066,1.679,0
2025-05-30 17:43:22.483,0.077,-0.031,9.871,0.0,-0.018,0.041,0.0469,-0.0085,-0.049,0.0469,-0.0032,-0.0399,35,0.25,-1.13,-3.43,0.9978,0.0019,-0.01,-0.03,0.003,-0.036,0.275,-0.005,-0.027,0.248,-0.223,-0.067,1.692,0
2025-05-30 17:43:22.538,0.093,-0.013,9.89,-0.075,-0.001,0.063,0.0,0.0128,-0.1214,0.0046,0.0128,-0.1135,35,0.25,-1.67,-3.76,0.9977,0.0017,-0.0146,-0.0328,0.001,-0.036,0.278,-0.005,-0.027,0.249,-0.223,-0.069,1.704,0
2025-05-30 17:43:22.592,0.068,-0.025,9.855,0.001,0.041,0.025,-0.0959,0.0043,-0.0746,-0.0859,0.0067,-0.0786,35,-0.06,-1.08,-3.98,0.9977,-0.0009,-0.0094,-0.0348,-0.001,-0.035,0.279,-0.004,-0.027,0.25,-0.224,-0.07,1.717,0
2025-05-30 17:43:22.646,0.074,-0.007,9.876,-0.002,-0.03,0.047,-0.0085,0.0,0.0703,-0.0164,0.0022,0.0552,35,0.46,-1.13,-3.83,0.9977,0.0037,-0.01,-0.0335,-0.001,-0.035,0.281,-0.004,-0.028,0.251,-0.224,-0.071,1.729,0
2025-05-30 17:43:22.701,0.075,0.002,9.865,-0.011,0.1,0.036,-0.049,-0.0341,0.0703,-0.0459,-0.0289,0.0686,35,-0.25,-1.19,-3.63,0.9978,-0.0025,-0.0104,-0.0317,-0.001,-0.033,0.283,-0.004,-0.028,0.252,-0.224,-0.073,1.742,0
2025-05-30 17:43:22.754,0.074,0.004,9.847,-0.014,0.048,0.018,-0.0937,-0.0277,0.0,-0.0891,-0.0262,0.0067,35,0.06,-1.2,-3.62,0.9978,0.0002,-0.0105,-0.0316,-0.001,-0.029,0.283,-0.004,-0.028,0.253,-0.224,-0.074,1.755,0
2025-05-30 17:43:22.810,0.084,-0.02,9.864,0.028,-0.069,0.034,0.0,0.0447,-0.1598,-0.009,0.0392,-0.1433,35,0.61,-1.01,-4.04,0.9976,0.005,-0.0091,-0.0353,0.0,-0.03,0.284,-0.004,-0.028,0.254,-0.224,-0.075,1.767,0
2025-05-30 17:43:22.862,0.079,-0.016,9.878,0.015,0.012,0.048,0.0362,0.049,0.0298,0.0316,0.0496,0.0123,35,0.16,-1.06,-3.99,0.9977,0.0011,-0.0093,-0.0349,0.001,-0.032,0.286,-0.004,-0.028,0.255,-0.225,-0.077,1.78,0
2025-05-30 17:43:22.916,0.063,0.011,9.88,0.022,-0.08,0.051,0.0447,0.0383,-0.017,0.0433,0.041,-0.0143,35,0.86,-0.92,-4.04,0.9976,0.0072,-0.0083,-0.0353,0.001,-0.033,0.288,-0.004,-0.028,0.256,-0.225,-0.078,1.793,0
2025-05-30 17:43:22.971,0.09,-0.027,9.828,0.04,-0.018,-0.002,-0.0256,0.0597,0.0682,-0.0188,0.0594,0.0597,35,0.27,-0.98,-3.86,0.9977,0.0021,-0.0086,-0.0337,0.003,-0.035,0.289,-0.003,-0.028,0.257,-0.225,-0.08,1.806,0
2025-05-30 17:43:23.023,0.09,-0.002,9.853,-0.031,0.011,0.024,-0.0447,0.0511,0.0362,-0.0423,0.0535,0.0384,35,0.25,-1.39,-3.75,0.9977,0.0017,-0.0122,-0.0328,0.003,-0.035,0.289,-0.003,-0.029,0.258,-0.225,-0.081,1.818,0
2025-05-30 17:43:23.080,0.066,0.004,9.851,0.066,-0.047,0.021,0.0852,0.0533,0.0618,0.0724,0.0549,0.0593,35,0.62,-0.69,-3.58,0.9978,0.0052,-0.0062,-0.0313,0.004,-0.037,0.29,-0.003,-0.029,0.259,-0.225,-0.083,1.831,0
2025-05-30 17:43:23.134,0.081,-0.023,9.84,-0.011,-0.042,0.011,0.0682,-0.0511,-0.0511,0.0685,-0.039,-0.0403,35,0.43,-1.22,-3.7,0.9977,0.0034,-0.0108,-0.0323,0.006,-0.039,0.29,-0.003,-0.029,0.26,-0.225,-0.084,1.844,0
2025-05-30 17:43:23.186,0.083,-0.018,9.84,-0.019,0.087,0.011,-0.0746,-0.0703,-0.0767,-0.0604,-0.0656,-0.0732,35,-0.29,-1.28,-3.89,0.9977,-0.0029,-0.0111,-0.0341,0.006,-0.038,0.29,-0.003,-0.029,0.26,-0.226,-0.085,1.857,0
2025-05-30 17:43:23.241,0.066,-0.047,9.856,0.017,-0.016,0.026,-0.0149,0.0107,-0.0511,-0.0196,0.0046,-0.0535,35,0.15,-0.97,-4.06,0.9976,0.001,-0.0086,-0.0354,0.006,-0.035,0.29,-0.002,-0.03,0.261,-0.226,-0.087,1.87,0
2025-05-30 17:43:23.293,0.07,-0.032,9.849,-0.107,0.015,0.022,-0.0149,-0.0703,0.0447,-0.0155,-0.0613,0.0347,35,0.05,-1.72,-3.96,0.9976,-0.0001,-0.015,-0.0346,0.003,-0.035,0.291,-0.002,-0.03,0.262,-0.226,-0.088,1.884,0
2025-05-30 17:43:23.350,0.074,-0.014,9.851,-0.046,0.018,0.023,-0.032,-0.0767,0.0234,-0.0304,-0.0736,0.0244,35,0.13,-1.38,-3.89,0.9977,0.0007,-0.0121,-0.034,-0.001,-0.035,0.292,-0.002,-0.03,0.263,-0.226,-0.09,1.897,0
2025-05-30 17:43:23.402,0.072,0.0,9.847,0.011,-0.008,0.018,-0.032,-0.0447,-0.1044,-0.0319,-0.0461,-0.0917,35,0.37,-1.04,-4.16,0.9976,0.0029,-0.0092,-0.0363,-0.002,-0.035,0.292,-0.002,-0.03,0.264,-0.226,-0.091,1.91,0
2025-05-30 17:43:23.458,0.057,-0.048,9.856,-0.042,0.084,0.028,-0.0937,-0.098,0.0469,-0.0877,-0.0912,0.0328,35,-0.45,-1.27,-4.06,0.9976,-0.0043,-0.0109,-0.0355,-0.003,-0.033,0.293,-0.002,-0.03,0.265,-0.226,-0.093,1.923,0
2025-05-30 17:43:23.510,0.081,-0.014,9.847,-0.05,0.019,0.019,0.017,-0.098,0.1001,0.0065,-0.0958,0.0932,35,0.13,-1.45,-3.8,0.9977,0.0007,-0.0127,-0.0332,-0.005,-0.031,0.293,-0.002,-0.03,0.266,-0.226,-0.094,1.936,0
2025-05-30 17:43:23.571,0.09,-0.013,9.876,0.058,-0.016,0.046,-0.0149,0.0362,0.0618,-0.0129,0.0246,0.0647,35,0.34,-0.87,-3.62,0.9978,0.0028,-0.0077,-0.0316,-0.005,-0.031,0.294,-0.002,-0.03,0.267,-0.226,-0.096,1.95,0
2025-05-30 17:43:23.619,0.074,-0.004,9.829,-0.049,-0.047,0.002,0.13,0.0085,0.0405,0.1156,0.0117,0.0427,35,0.58,-1.41,-3.5,0.9978,0.0047,-0.0124,-0.0305,-0.005,-0.032,0.295,-0.002,-0.03,0.268,-0.226,-0.097,1.963,0
2025-05-30 17:43:23.673,0.09,-0.014,9.864,-0.008,0.052,0.035,-0.0703,-0.0575,-0.0298,-0.0518,-0.049,-0.0228,35,-0.06,-1.26,-3.55,0.9978,-0.0009,-0.011,-0.0311,-0.006,-0.032,0.296,-0.003,-0.03,0.268,-0.227,-0.099,1.977,0
2025-05-30 17:43:23.727,0.104,-0.002,9.878,-0.021,-0.011,0.05,-0.0469,-0.0383,-0.1108,-0.0475,-0.0379,-0.1022,35,0.38,-1.42,-3.86,0.9977,0.0029,-0.0125,-0.0337,-0.007,-0.031,0.297,-0.003,-0.03,0.269,-0.227,-0.101,1.99,0
2025-05-30 17:43:23.782,0.097,-0.041,9.865,0.046,0.054,0.036,-0.0362,0.0618,0.1364,-0.0375,0.0534,0.1123,35,-0.24,-0.99,-3.53,0.9978,-0.0023,-0.0086,-0.0308,-0.006,-0.029,0.299,-0.003,-0.03,0.27,-0.227,-0.102,2.004,0
2025-05-30 17:43:23.834,0.081,-0.004,9.876,0.024,0.022,0.046,-0.0469,0.0469,0.0767,-0.046,0.0491,0.0801,35,0.17,-1.02,-3.31,0.9979,0.0012,-0.0089,-0.0289,-0.004,-0.027,0.301,-0.003,-0.03,0.271,-0.227,-0.104,2.017,0
2025-05-30 17:43:23.888,0.065,-0.02,9.867,-0.069,-0.001,0.039,-0.115,-0.0064,-0.0064,-0.1083,0.0007,0.0021,35,0.21,-1.47,-3.31,0.9978,0.0015,-0.0129,-0.0289,-0.006,-0.027,0.303,-0.003,-0.03,0.272,-0.227,-0.105,2.031,0
2025-05-30 17:43:23.943,0.088,-0.004,9.874,0.019,-0.024,0.045,0.0341,-0.0639,0.115,0.0197,-0.0559,0.1036,35,0.44,-1.09,-3.02,0.9979,0.0036,-0.0096,-0.0263,-0.007,-0.027,0.305,-0.003,-0.03,0.273,-0.227,-0.107,2.044,0
2025-05-30 17:43:23.999,0.068,-0.023,9.858,0.053,0.064,0.028,-0.0234,0.1257,0.0511,-0.0192,0.1091,0.0562,35,-0.19,-0.77,-2.85,0.998,-0.0018,-0.0067,-0.0249,-0.006,-0.026,0.306,-0.003,-0.03,0.274,-0.227,-0.108,2.058,0
2025-05-30 17:43:24.052,0.093,0.013,9.835,0.009,0.018,0.006,0.0128,-0.0341,-0.1214,0.0095,-0.0182,-0.1039,35,0.29,-1.18,-3.15,0.9979,0.0023,-0.0104,-0.0275,-0.005,-0.025,0.306,-0.003,-0.03,0.275,-0.228,-0.11,2.072,0
2025-05-30 17:43:24.107,0.095,-0.013,9.862,-0.034,0.04,0.034,0.0149,0.0831,0.0107,0.0143,0.0745,-0.001,35,0.02,-1.44,-3.15,0.9979,-0.0002,-0.0126,-0.0275,-0.005,-0.024,0.307,-0.003,-0.03,0.276,-0.228,-0.111,2.086,0
2025-05-30 17:43:24.158,0.088,-0.014,9.856,0.026,-0.003,0.027,-0.0597,-0.0213,-0.0788,-0.0524,-0.0102,-0.0712,35,0.26,-1.05,-3.36,0.9978,0.002,-0.0092,-0.0293,-0.006,-0.023,0.308,-0.003,-0.029,0.277,-0.228,-0.112,2.099,0
2025-05-30 17:43:24.214,0.093,0.005,9.867,0.006,-0.028,0.038,0.0064,0.1406,0.1619,0.0004,0.1271,0.1384,35,0.52,-1.2,-2.97,0.9979,0.0043,-0.0106,-0.0259,-0.005,-0.023,0.309,-0.003,-0.029,0.278,-0.228,-0.114,2.113,0
2025-05-30 17:43:24.265,0.095,-0.018,9.851,-0.008,0.038,0.022,0.017,-0.017,0.0192,0.0153,-0.0011,0.0309,35,-0.0,-1.29,-2.87,0.9979,-0.0003,-0.0113,-0.025,-0.005,-0.023,0.311,-0.003,-0.029,0.279,-0.228,-0.115,2.127,0
2025-05-30 17:43:24.323,0.072,0.004,9.869,0.034,-0.031,0.039,0.0085,0.0426,0.0405,0.0091,0.0398,0.0393,35,0.52,-0.91,-2.76,0.998,0.0044,-0.0081,-0.0241,-0.004,-0.023,0.312,-0.003,-0.029,0.28,-0.228,-0.117,2.141,0
2025-05-30 17:43:24.376,0.099,-0.013,9.862,0.039,0.021,0.032,-0.0213,0.1193,-0.0916,-0.0184,0.1129,-0.0787,35,0.13,-1.04,-2.98,0.9979,0.0009,-0.0091,-0.026,-0.002,-0.023,0.313,-0.003,-0.029,0.281,-0.229,-0.118,2.155,0
2025-05-30 17:43:24.428,0.075,-0.022,9.842,-0.038,-0.064,0.014,0.0383,0.0405,0.0149,0.0326,0.0493,0.0054,35,0.57,-1.35,-2.97,0.9979,0.0047,-0.0119,-0.0259,-0.002,-0.024,0.314,-0.003,-0.028,0.282,-0.229,-0.12,2.169,0
2025-05-30 17:43:24.488,0.081,-0.007,9.853,-0.013,0.009,0.024,0.0511,-0.0852,0.0341,0.0492,-0.0702,0.031,35,0.23,-1.24,-2.87,0.9979,0.0017,-0.0108,-0.0251,-0.003,-0.026,0.314,-0.003,-0.028,0.283,-0.229,-0.121,2.184,0
2025-05-30 17:43:24.544,0.059,-0.013,9.826,0.066,-0.044,-0.004,0.081,0.0149,0.0937,0.0777,0.008,0.0873,35,0.51,-0.65,-2.62,0.998,0.0043,-0.0057,-0.0229,-0.002,-0.027,0.314,-0.003,-0.028,0.284,-0.229,-0.122,2.198,0
2025-05-30 17:43:24.594,0.059,-0.018,9.856,-0.023,-0.004,0.027,0.0234,-0.0256,0.115,0.0287,-0.0206,0.1121,35,0.24,-1.17,-2.3,0.9981,0.0019,-0.0102,-0.0201,-0.0,-0.028,0.315,-0.003,-0.028,0.285,-0.229,-0.124,2.212,0
2025-05-30 17:43:24.651,0.083,-0.002,9.837,-0.036,-0.09,0.009,0.0107,-0.0597,0.1001,0.0124,-0.0542,0.1011,35,0.84,-1.38,-2.02,0.9981,0.0071,-0.0122,-0.0176,-0.002,-0.03,0.315,-0.003,-0.028,0.286,-0.229,-0.125,2.226,0
2025-05-30 17:43:24.704,0.104,-0.002,9.862,0.011,-0.049,0.033,0.1257,0.0277,0.0,0.1143,0.0211,0.0099,35,0.6,-1.23,-1.98,0.9981,0.0051,-0.0108,-0.0173,-0.003,-0.033,0.316,-0.003,-0.029,0.287,-0.23,-0.127,2.241,0
2025-05-30 17:43:24.758,0.088,-0.023,9.86,0.028,0.002,0.03,0.0447,0.0554,0.0043,0.0516,0.0535,0.0046,35,0.18,-1.04,-1.95,0.9981,0.0014,-0.0091,-0.0171,-0.002,-0.035,0.317,-0.003,-0.029,0.288,-0.23,-0.128,2.255,0
2025-05-30 17:43:24.813,0.061,-0.038,9.856,-0.015,0.13,0.028,-0.1087,-0.0256,0.0128,-0.0927,-0.0161,0.0118,35,-0.66,-1.13,-1.91,0.9981,-0.0059,-0.0098,-0.0167,-0.001,-0.031,0.318,-0.003,-0.029,0.288,-0.23,-0.13,2.269,0
2025-05-30 17:43:24.866,0.079,-0.031,9.858,0.017,0.036,0.028,0.0192,0.0362,0.0426,0.0079,0.0326,0.0393,35,-0.07,-1.05,-1.81,0.9981,-0.0007,-0.0092,-0.0158,-0.001,-0.027,0.319,-0.003,-0.029,0.289,-0.23,-0.131,2.284,0
2025-05-30 17:43:24.920,0.088,-0.016,9.817,0.013,-0.088,-0.012,0.1193,0.0703,0.0554,0.1081,0.0681,0.0536,35,0.75,-1.12,-1.67,0.9981,0.0064,-0.0099,-0.0145,-0.001,-0.028,0.32,-0.003,-0.029,0.29,-0.23,-0.133,2.298,0
2025-05-30 17:43:24.975,0.077,0.0,9.86,0.016,0.007,0.03,0.0298,0.0298,-0.0256,0.0375,0.0352,-0.0178,35,0.28,-1.04,-1.71,0.9982,0.0023,-0.0091,-0.0149,-0.001,-0.031,0.32,-0.003,-0.029,0.291,-0.23,-0.134,2.313,0
2025-05-30 17:43:25.029,0.086,0.002,9.84,-0.062,0.04,0.012,-0.1491,0.0064,-0.0511,-0.1306,0.0108,-0.048,35,0.1,-1.55,-1.84,0.9981,0.0006,-0.0136,-0.0161,-0.003,-0.03,0.32,-0.003,-0.029,0.292,-0.23,-0.135,2.328,0
2025-05-30 17:43:25.082,0.084,-0.004,9.862,0.028,0.004,0.032,-0.0234,0.0107,-0.0852,-0.0343,0.0122,-0.0817,35,0.28,-1.01,-2.08,0.9981,0.0023,-0.0089,-0.0182,-0.004,-0.029,0.321,-0.003,-0.029,0.293,-0.231,-0.137,2.342,0
2025-05-30 17:43:25.136,0.083,-0.014,9.862,-0.052,0.003,0.034,0.0383,0.0341,0.0192,0.031,0.0335,0.0089,35,0.22,-1.47,-2.06,0.9981,0.0017,-0.0129,-0.0179,-0.004,-0.029,0.322,-0.003,-0.029,0.294,-0.231,-0.138,2.357,0
2025-05-30 17:43:25.190,0.083,0.004,9.837,0.061,0.021,0.006,-0.0874,0.0447,0.0405,-0.0756,0.0452,0.0371,35,0.22,-0.81,-1.95,0.9981,0.0018,-0.0071,-0.0171,-0.004,-0.028,0.323,-0.003,-0.029,0.295,-0.231,-0.14,2.372,0
2025-05-30 17:43:25.244,0.079,-0.036,9.86,-0.009,0.029,0.031,-0.0298,0.0533,0.1193,-0.0345,0.054,0.1109,35,-0.06,-1.2,-1.63,0.9982,-0.0007,-0.0105,-0.0143,-0.003,-0.027,0.323,-0.003,-0.029,0.296,-0.231,-0.141,2.386,0
2025-05-30 17:43:25.297,0.081,0.004,9.838,0.012,-0.028,0.009,0.0,0.0128,-0.1364,-0.0036,0.0185,-0.1118,35,0.51,-1.09,-1.96,0.9981,0.0043,-0.0096,-0.0171,-0.003,-0.027,0.324,-0.003,-0.029,0.296,-0.231,-0.143,2.401,0
2025-05-30 17:43:25.353,0.074,-0.014,9.846,-0.027,0.06,0.017,-0.0192,-0.0511,0.0405,-0.0177,-0.0426,0.0251,35,-0.11,-1.27,-1.88,0.9981,-0.0012,-0.0111,-0.0165,-0.003,-0.026,0.323,-0.003,-0.029,0.297,-0.231,-0.144,2.416,0
2025-05-30 17:43:25.407,0.088,-0.011,9.824,0.015,-0.051,-0.005,0.0447,0.0256,-0.0362,0.0384,0.0203,-0.0303,35,0.56,-1.11,-1.98,0.9981,0.0047,-0.0098,-0.0173,-0.004,-0.026,0.323,-0.003,-0.028,0.298,-0.232,-0.145,2.431,0
2025-05-30 17:43:25.462,0.093,0.002,9.851,-0.02,0.036,0.022,0.0213,0.0085,-0.049,0.0229,0.0113,-0.0473,35,0.12,-1.35,-2.1,0.9981,0.0009,-0.0118,-0.0184,-0.004,-0.026,0.323,-0.003,-0.028,0.299,-0.232,-0.147,2.446,0
2025-05-30 17:43:25.514,0.084,-0.014,9.856,0.039,-0.04,0.027,0.0064,-0.032,-0.017,0.0079,-0.0261,-0.0203,35,0.47,-0.95,-2.17,0.9981,0.004,-0.0084,-0.0189,-0.003,-0.026,0.324,-0.003,-0.028,0.3,-0.232,-0.148,2.461,0
2025-05-30 17:43:25.569,0.075,-0.025,9.872,-0.046,0.069,0.044,-0.081,-0.0597,0.0107,-0.0722,-0.0547,0.0074,35,-0.23,-1.4,-2.14,0.9981,-0.0022,-0.0122,-0.0187,-0.003,-0.025,0.326,-0.003,-0.028,0.3,-0.232,-0.15,2.476,0
2025-05-30 17:43:25.624,0.086,-0.013,9.876,0.03,-0.046,0.047,0.0959,0.0639,0.0959,0.079,0.0536,0.0868,35,0.52,-1.02,-1.9,0.9981,0.0044,-0.0089,-0.0166,-0.004,-0.025,0.328,-0.003,-0.028,0.301,-0.232,-0.151,2.491,0
2025-05-30 17:43:25.677,0.093,-0.023,9.862,-0.002,0.015,0.033,0.0149,0.0256,-0.0107,0.0212,0.0299,-0.0011,35,0.1,-1.24,-1.89,0.9981,0.0007,-0.0109,-0.0166,-0.003,-0.026,0.329,-0.003,-0.028,0.302,-0.232,-0.152,2.506,0
2025-05-30 17:43:25.731,0.126,0.005,9.878,-0.057,-0.064,0.052,0.0618,-0.0767,0.0554,0.0576,-0.0645,0.0496,35,0.73,-1.75,-1.77,0.9981,0.0062,-0.0154,-0.0153,-0.004,-0.027,0.331,-0.003,-0.028,0.303,-0.232,-0.154,2.521,0
2025-05-30 17:43:25.786,0.074,-0.007,9.878,-0.038,-0.043,0.05,0.0447,-0.0149,0.0149,0.0459,-0.0183,0.0182,35,0.53,-1.34,-1.71,0.9981,0.0045,-0.0118,-0.0149,-0.007,-0.03,0.333,-0.003,-0.028,0.304,-0.233,-0.155,2.537,0
2025-05-30 17:43:25.838,0.072,-0.02,9.856,0.012,0.087,0.027,-0.1491,-0.0107,-0.0405,-0.1297,-0.0099,-0.0348,35,-0.3,-1.03,-1.8,0.9981,-0.0028,-0.009,-0.0157,-0.007,-0.029,0.335,-0.003,-0.028,0.305,-0.233,-0.157,2.552,0
2025-05-30 17:43:25.895,0.095,0.004,9.829,-0.03,0.07,0.001,-0.1065,-0.081,-0.0959,-0.109,-0.0723,-0.09,35,-0.07,-1.42,-2.06,0.9981,-0.0008,-0.0124,-0.018,-0.008,-0.025,0.335,-0.003,-0.028,0.306,-0.233,-0.158,2.567,0
2025-05-30 17:43:25.949,0.093,-0.007,9.838,-0.008,-0.007,0.01,-0.032,-0.0426,0.0575,-0.0398,-0.044,0.0426,35,0.32,-1.28,-1.95,0.9981,0.0026,-0.0112,-0.017,-0.009,-0.023,0.335,-0.004,-0.028,0.307,-0.233,-0.16,2.582,0
2025-05-30 17:43:26.002,0.061,-0.014,9.847,0.033,0.044,0.017,-0.0533,-0.0405,-0.0767,-0.052,-0.0393,-0.065,35,-0.02,-0.85,-2.14,0.9981,-0.0003,-0.0074,-0.0187,-0.008,-0.022,0.334,-0.004,-0.028,0.307,-0.233,-0.161,2.598,0
2025-05-30 17:43:26.055,0.061,-0.02,9.846,-0.039,-0.083,0.017,0.1172,-0.0149,0.1747,0.1001,-0.0158,0.1505,35,0.69,-1.27,-1.72,0.9981,0.0059,-0.0112,-0.0149,-0.008,-0.023,0.334,-0.004,-0.028,0.308,-0.234,-0.162,2.613,0
2025-05-30 17:43:26.111,0.054,-0.004,9.853,0.046,0.026,0.022,-0.0383,0.0831,0.0511,-0.0246,0.0748,0.0609,35,0.15,-0.73,-1.53,0.9982,0.0012,-0.0064,-0.0134,-0.008,-0.024,0.334,-0.004,-0.027,0.309,-0.234,-0.164,2.629,0
2025-05-30 17:43:26.163,0.081,-0.013,9.851,0.004,0.004,0.022,-0.017,0.0511,0.0149,-0.0179,0.0551,0.0193,35,0.23,-1.13,-1.48,0.9982,0.0019,-0.0099,-0.0129,-0.007,-0.024,0.335,-0.004,-0.027,0.31,-0.234,-0.165,2.644,0
2025-05-30 17:43:26.215,0.07,-0.016,9.838,0.135,-0.001,0.007,0.0021,0.0916,0.017,0.0,0.0895,0.0171,35,0.24,-0.31,-1.43,0.9982,0.002,-0.0027,-0.0125,-0.004,-0.024,0.335,-0.004,-0.027,0.311,-0.234,-0.166,2.66,0
2025-05-30 17:43:26.275,0.07,-0.011,9.851,0.02,-0.001,0.021,0.0043,-0.0511,-0.0788,0.0037,-0.0355,-0.0694,35,0.27,-0.98,-1.63,0.9982,0.0022,-0.0086,-0.0142,-0.0,-0.024,0.335,-0.004,-0.027,0.311,-0.234,-0.168,2.675,0
2025-05-30 17:43:26.327,0.075,-0.014,9.885,-0.091,-0.031,0.058,0.1023,-0.0447,0.0511,0.0923,-0.0423,0.0389,35,0.42,-1.66,-1.52,0.9981,0.0035,-0.0146,-0.0132,-0.003,-0.024,0.337,-0.004,-0.027,0.312,-0.235,-0.169,2.691,0
2025-05-30 17:43:26.380,0.092,-0.022,9.855,-0.017,-0.053,0.026,0.1257,-0.0618,0.017,0.1222,-0.0583,0.019,35,0.51,-1.32,-1.45,0.9982,0.0043,-0.0116,-0.0127,-0.005,-0.026,0.339,-0.004,-0.027,0.313,-0.235,-0.17,2.706,0
2025-05-30 17:43:26.433,0.092,-0.052,9.846,0.029,-0.016,0.016,0.0533,0.066,0.0916,0.0601,0.0552,0.0842,35,0.11,-1.05,-1.2,0.9982,0.0009,-0.0092,-0.0105,-0.004,-0.028,0.339,-0.004,-0.027,0.314,-0.235,-0.172,2.722,0
2025-05-30 17:43:26.492,0.072,-0.029,9.833,-0.108,-0.046,0.006,-0.0213,-0.0959,-0.0639,-0.0133,-0.0792,-0.0493,35,0.42,-1.74,-1.35,0.9981,0.0035,-0.0152,-0.0117,-0.006,-0.029,0.339,-0.004,-0.027,0.315,-0.235,-0.173,2.738,0
2025-05-30 17:43:26.546,0.084,0.002,9.869,0.031,0.006,0.039,-0.0128,0.0746,-0.0128,-0.0129,0.0608,-0.0166,35,0.3,-1.0,-1.39,0.9982,0.0025,-0.0088,-0.0122,-0.008,-0.03,0.34,-0.004,-0.027,0.315,-0.235,-0.174,2.754,0
2025-05-30 17:43:26.601,0.079,-0.009,9.883,-0.04,0.005,0.055,0.0213,0.0618,0.0597,0.0178,0.0632,0.0518,35,0.24,-1.38,-1.24,0.9982,0.002,-0.0121,-0.0108,-0.008,-0.03,0.342,-0.004,-0.027,0.316,-0.236,-0.176,2.769,0
2025-05-30 17:43:26.654,0.077,-0.02,9.872,0.034,-0.026,0.043,0.0746,-0.0575,-0.0192,0.0688,-0.0439,-0.0123,35,0.36,-0.94,-1.28,0.9982,0.003,-0.0082,-0.0111,-0.008,-0.031,0.344,-0.004,-0.027,0.317,-0.236,-0.177,2.785,0
2025-05-30 17:43:26.708,0.095,-0.031,9.872,-0.044,0.0,0.045,0.0383,-0.032,0.0533,0.0413,-0.0316,0.0465,35,0.14,-1.5,-1.14,0.9982,0.0011,-0.0131,-0.0099,-0.009,-0.031,0.345,-0.005,-0.027,0.318,-0.236,-0.179,2.801,0
2025-05-30 17:43:26.765,0.061,-0.013,9.88,0.012,0.017,0.05,-0.0511,-0.0107,0.0469,-0.042,-0.0112,0.0466,35,0.15,-0.97,-1.01,0.9982,0.0012,-0.0085,-0.0088,-0.01,-0.031,0.347,-0.005,-0.028,0.319,-0.236,-0.18,2.817,0
2025-05-30 17:43:26.817,0.047,-0.022,9.871,0.058,-0.037,0.04,-0.1044,0.0724,0.0426,-0.0983,0.0656,0.0428,35,0.41,-0.62,-0.89,0.9983,0.0036,-0.0054,-0.0078,-0.008,-0.032,0.349,-0.005,-0.028,0.32,-0.236,-0.181,2.833,0
2025-05-30 17:43:26.870,0.074,0.0,9.871,0.031,-0.007,0.041,0.032,0.0874,0.0,0.0188,0.0867,0.0041,35,0.36,-0.93,-0.88,0.9982,0.0031,-0.0082,-0.0077,-0.006,-0.033,0.351,-0.005,-0.028,0.321,-0.237,-0.183,2.849,0
2025-05-30 17:43:26.926,0.099,0.004,9.84,-0.03,-0.013,0.012,0.0341,0.0149,0.0277,0.0325,0.0237,0.0251,35,0.42,-1.44,-0.81,0.9982,0.0036,-0.0126,-0.007,-0.006,-0.033,0.352,-0.005,-0.028,0.322,-0.237,-0.184,2.865,0
2025-05-30 17:43:26.979,0.083,-0.005,9.855,0.043,-0.018,0.025,0.081,-0.0021,-0.1406,0.076,0.002,-0.1242,35,0.4,-0.92,-1.16,0.9982,0.0034,-0.008,-0.0101,-0.006,-0.033,0.352,-0.005,-0.028,0.322,-0.237,-0.186,2.881,0
2025-05-30 17:43:27.034,0.072,0.005,9.822,-0.113,0.024,-0.004,-0.0362,-0.115,-0.0895,-0.0251,-0.1018,-0.0931,35,0.21,-1.76,-1.42,0.9981,0.0017,-0.0154,-0.0124,-0.007,-0.032,0.352,-0.005,-0.028,0.323,-0.237,-0.187,2.897,0
2025-05-30 17:43:27.085,0.061,-0.005,9.892,0.004,0.039,0.062,-0.081,0.0788,-0.049,-0.0755,0.0623,-0.0536,35,0.06,-1.02,-1.58,0.9982,0.0004,-0.0089,-0.0138,-0.01,-0.031,0.353,-0.005,-0.028,0.324,-0.238,-0.188,2.914,0
2025-05-30 17:43:27.139,0.088,-0.013,9.837,-0.028,-0.073,0.009,0.0916,0.0149,0.1534,0.0748,0.0212,0.1325,35,0.68,-1.36,-1.21,0.9982,0.0058,-0.012,-0.0105,-0.011,-0.031,0.355,-0.005,-0.028,0.325,-0.238,-0.19,2.93,0
2025-05-30 17:43:27.196,0.081,-0.011,9.865,0.033,0.005,0.035,0.0192,0.0533,0.017,0.0246,0.0516,0.0284,35,0.23,-0.96,-1.11,0.9982,0.0019,-0.0084,-0.0097,-0.011,-0.033,0.355,-0.005,-0.029,0.326,-0.238,-0.191,2.946,0
2025-05-30 17:43:27.247,0.083,-0.018,9.844,-0.026,-0.04,0.015,0.1001,0.0767,0.1427,0.0925,0.0758,0.1311,35,0.45,-1.32,-0.74,0.9982,0.0039,-0.0116,-0.0064,-0.01,-0.034,0.356,-0.006,-0.029,0.327,-0.239,-0.193,2.963,0
2025-05-30 17:43:27.301,0.088,-0.004,9.846,0.061,0.062,0.015,-0.0341,0.0383,0.017,-0.0215,0.0437,0.0283,35,-0.06,-0.85,-0.65,0.9983,-0.0006,-0.0074,-0.0057,-0.009,-0.034,0.355,-0.006,-0.029,0.328,-0.239,-0.194,2.979,0
2025-05-30 17:43:27.356,0.079,-0.016,9.869,-0.034,-0.014,0.04,-0.0085,-0.0405,-0.0597,-0.0099,-0.0305,-0.0511,35,0.31,-1.35,-0.8,0.9982,0.0026,-0.0118,-0.007,-0.009,-0.032,0.356,-0.006,-0.029,0.329,-0.239,-0.196,2.995,0
2025-05-30 17:43:27.411,0.072,-0.038,9.84,0.024,0.024,0.01,0.0128,-0.017,0.049,0.0104,-0.0168,0.0388,35,-0.04,-0.96,-0.68,0.9983,-0.0004,-0.0084,-0.006,-0.009,-0.031,0.357,-0.006,-0.029,0.33,-0.239,-0.197,3.012,0
2025-05-30 17:43:27.465,0.084,-0.007,9.849,-0.029,0.005,0.021,-0.0703,-0.0256,0.0554,-0.0623,-0.0231,0.0535,35,0.25,-1.35,-0.54,0.9982,0.0022,-0.0118,-0.0047,-0.009,-0.031,0.357,-0.006,-0.029,0.33,-0.24,-0.199,3.028,0
2025-05-30 17:43:27.517,0.083,0.011,9.881,0.015,-0.069,0.053,0.0874,-0.0746,0.0149,0.0723,-0.0679,0.0186,35,0.79,-1.08,-0.49,0.9982,0.0069,-0.0095,-0.0042,-0.01,-0.032,0.358,-0.006,-0.029,0.331,-0.24,-0.2,3.045,0
2025-05-30 17:43:27.571,0.083,0.004,9.811,0.003,0.047,-0.018,-0.0682,0.0256,0.1726,-0.0542,0.0178,0.157,35,0.07,-1.15,-0.03,0.9983,0.0006,-0.0101,-0.0003,-0.01,-0.033,0.359,-0.006,-0.029,0.332,-0.24,-0.201,3.062,0
2025-05-30 17:43:27.629,0.075,0.005,9.853,0.013,-0.059,0.024,0.0277,0.017,-0.1278,0.0194,0.0187,-0.0995,35,0.7,-1.05,-0.33,0.9982,0.0061,-0.0092,-0.0028,-0.01,-0.033,0.36,-0.006,-0.029,0.333,-0.241,-0.203,3.078,0
2025-05-30 17:43:27.681,0.07,-0.043,9.831,-0.033,0.021,0.002,-0.0746,-0.081,-0.1577,-0.0653,-0.0694,-0.152,35,-0.05,-1.29,-0.75,0.9982,-0.0005,-0.0113,-0.0066,-0.011,-0.034,0.36,-0.006,-0.03,0.334,-0.241,-0.204,3.095,0
2025-05-30 17:43:27.736,0.086,0.002,9.878,0.03,-0.027,0.048,0.0043,0.0554,0.0895,-0.0028,0.0445,0.0651,35,0.49,-1.02,-0.58,0.9983,0.0043,-0.0089,-0.005,-0.011,-0.034,0.361,-0.007,-0.03,0.335,-0.241,-0.206,3.112,0
2025-05-30 17:43:27.788,0.07,0.002,9.847,-0.003,0.055,0.018,0.0107,0.0575,-0.0107,0.0092,0.0578,-0.0033,35,0.01,-1.11,-0.58,0.9983,0.0,-0.0097,-0.005,-0.01,-0.034,0.361,-0.007,-0.03,0.335,-0.242,-0.207,3.128,0
2025-05-30 17:43:27.843,0.097,-0.009,9.838,-0.041,0.014,0.01,-0.13,-0.049,-0.13,-0.1162,-0.0368,-0.1175,35,0.19,-1.49,-0.92,0.9982,0.0015,-0.0131,-0.008,-0.011,-0.032,0.361,-0.007,-0.03,0.336,-0.242,-0.209,3.145,0
2025-05-30 17:43:27.896,0.081,-0.007,9.862,0.032,0.022,0.032,-0.0597,-0.0085,0.0788,-0.0654,-0.0098,0.059,35,0.15,-0.97,-0.76,0.9983,0.0013,-0.0085,-0.0066,-0.011,-0.032,0.362,-0.007,-0.03,0.337,-0.242,-0.21,3.162,0
2025-05-30 17:43:27.951,0.047,-0.022,9.86,0.032,-0.127,0.031,0.098,0.0213,-0.0575,0.0816,0.0198,-0.0461,35,0.94,-0.77,-0.9,0.9982,0.0082,-0.0068,-0.0078,-0.01,-0.034,0.363,-0.007,-0.03,0.338,-0.243,-0.212,3.179,0
2025-05-30 17:43:28.006,0.084,-0.005,9.835,-0.006,0.01,0.006,-0.0959,-0.0575,-0.0043,-0.0782,-0.0482,-0.0086,35,0.23,-1.21,-0.91,0.9982,0.002,-0.0106,-0.008,-0.009,-0.037,0.363,-0.007,-0.03,0.338,-0.243,-0.213,3.196,0
2025-05-30 17:43:28.059,0.077,-0.005,9.838,0.05,-0.038,0.009,-0.0192,-0.0298,-0.0724,-0.0252,-0.0301,-0.0662,35,0.51,-0.85,-1.11,0.9982,0.0044,-0.0074,-0.0097,-0.008,-0.038,0.363,-0.007,-0.031,0.339,-0.243,-0.215,3.213,0
2025-05-30 17:43:28.113,0.093,-0.007,9.872,0.014,0.027,0.043,-0.032,0.0746,0.0469,-0.0314,0.0657,0.0354,35,0.13,-1.15,-1.0,0.9982,0.001,-0.01,-0.0088,-0.006,-0.038,0.363,-0.007,-0.031,0.34,-0.244,-0.216,3.23,0
2025-05-30 17:43:28.165,0.075,-0.02,9.865,0.005,-0.041,0.036,-0.0874,-0.0447,-0.0234,-0.0819,-0.0321,-0.0177,35,0.45,-1.1,-1.06,0.9982,0.0038,-0.0096,-0.0093,-0.006,-0.039,0.365,-0.007,-0.031,0.341,-0.244,-0.218,3.247,0
2025-05-30 17:43:28.222,0.097,-0.005,9.846,-0.054,0.022,0.018,0.0554,-0.0234,0.0256,0.0416,-0.0227,0.021,35,0.16,-1.57,-1.0,0.9982,0.0013,-0.0137,-0.0087,-0.008,-0.039,0.366,-0.007,-0.031,0.341,-0.244,-0.22,3.264,0
2025-05-30 17:43:28.274,0.075,0.009,9.894,0.01,-0.005,0.065,-0.0043,-0.0043,0.032,0.0002,-0.0045,0.0307,35,0.41,-1.07,-0.91,0.9982,0.0035,-0.0093,-0.008,-0.009,-0.039,0.367,-0.007,-0.032,0.342,-0.245,-0.221,3.281,0
2025-05-30 17:43:28.329,0.07,-0.025,9.856,-0.076,0.101,0.029,-0.1001,-0.1577,-0.0618,-0.0902,-0.1408,-0.0527,35,-0.42,-1.54,-1.05,0.9982,-0.0038,-0.0134,-0.0093,-0.011,-0.036,0.369,-0.007,-0.032,0.343,-0.245,-0.223,3.298,0
2025-05-30 17:43:28.388,0.059,-0.002,9.855,-0.048,0.064,0.026,-0.0341,-0.0234,0.017,-0.0398,-0.0336,0.0099,35,-0.06,-1.31,-1.04,0.9982,-0.0006,-0.0115,-0.0091,-0.014,-0.032,0.37,-0.007,-0.032,0.344,-0.245,-0.224,3.315,0
2025-05-30 17:43:28.436,0.084,0.023,9.853,0.01,0.018,0.024,-0.0469,0.0213,0.1491,-0.0463,0.0174,0.135,35,0.35,-1.12,-0.66,0.9982,0.003,-0.0098,-0.0058,-0.015,-0.03,0.371,-0.008,-0.032,0.345,-0.246,-0.226,3.333,0
2025-05-30 17:43:28.500,0.081,-0.047,9.849,-0.004,0.039,0.02,0.0213,0.0,0.0213,0.0144,0.0033,0.0325,35,-0.18,-1.18,-0.56,0.9982,-0.0016,-0.0103,-0.0049,-0.015,-0.029,0.371,-0.008,-0.032,0.345,-0.246,-0.228,3.35,0
2025-05-30 17:43:28.548,0.081,-0.018,9.838,0.041,-0.09,0.009,0.1342,0.0895,-0.0192,0.1221,0.0824,-0.0142,35,0.74,-0.92,-0.61,0.9982,0.0065,-0.008,-0.0053,-0.014,-0.031,0.371,-0.008,-0.032,0.346,-0.247,-0.229,3.367,0
2025-05-30 17:43:28.605,0.052,0.007,9.855,-0.022,0.017,0.025,0.017,-0.0469,-0.115,0.0274,-0.0324,-0.1052,35,0.27,-1.12,-0.9,0.9982,0.0023,-0.0098,-0.0079,-0.014,-0.033,0.371,-0.008,-0.032,0.347,-0.247,-0.231,3.385,0
2025-05-30 17:43:28.657,0.09,0.002,9.853,-0.07,-0.069,0.026,0.0511,-0.0128,-0.0597,0.0487,-0.0132,-0.0644,35,0.74,-1.62,-1.09,0.9981,0.0063,-0.0142,-0.0095,-0.016,-0.034,0.372,-0.008,-0.032,0.348,-0.248,-0.232,3.402,0
2025-05-30 17:43:28.711,0.083,-0.031,9.84,-0.006,-0.069,0.011,0.0959,0.0277,-0.049,0.091,0.0252,-0.0507,35,0.55,-1.2,-1.23,0.9982,0.0047,-0.0106,-0.0107,-0.018,-0.038,0.372,-0.009,-0.032,0.348,-0.248,-0.234,3.419,0
2025-05-30 17:43:28.767,0.063,0.0,9.837,0.027,0.045,0.006,-0.0149,-0.0085,-0.098,-0.0044,-0.0036,-0.0935,35,0.06,-0.9,-1.48,0.9982,0.0004,-0.0078,-0.013,-0.017,-0.038,0.372,-0.009,-0.032,0.349,-0.248,-0.235,3.437,0
2025-05-30 17:43:28.821,0.099,0.011,9.885,0.036,-0.04,0.056,0.0703,0.1044,0.0554,0.0627,0.0952,0.0403,35,0.62,-1.05,-1.37,0.9982,0.0053,-0.0093,-0.012,-0.015,-0.038,0.373,-0.009,-0.032,0.35,-0.249,-0.237,3.454,0
2025-05-30 17:43:28.874,0.084,-0.014,9.864,-0.019,0.011,0.035,0.0298,-0.0341,-0.081,0.033,-0.0196,-0.069,35,0.17,-1.29,-1.56,0.9982,0.0014,-0.0113,-0.0136,-0.014,-0.039,0.375,-0.009,-0.032,0.351,-0.249,-0.239,3.472,0
2025-05-30 17:43:28.926,0.09,-0.009,9.853,0.033,-0.122,0.024,0.1364,-0.032,-0.0362,0.1259,-0.0292,-0.0397,35,0.99,-1.02,-1.68,0.9981,0.0085,-0.009,-0.0146,-0.014,-0.042,0.376,-0.009,-0.033,0.351,-0.25,-0.24,3.489,0
2025-05-30 17:43:28.983,0.088,0.0,9.855,0.006,-0.048,0.026,0.0511,0.0021,-0.0085,0.0585,0.0006,-0.0118,35,0.6,-1.17,-1.71,0.9981,0.0051,-0.0103,-0.0149,-0.013,-0.046,0.377,-0.01,-0.033,0.352,-0.25,-0.242,3.507,0
2025-05-30 17:43:29.035,0.072,-0.016,9.865,0.025,0.01,0.035,0.0447,0.0426,0.0149,0.046,0.04,0.0121,35,0.17,-0.96,-1.66,0.9982,0.0014,-0.0084,-0.0145,-0.012,-0.048,0.378,-0.01,-0.034,0.353,-0.251,-0.244,3.525,0
2025-05-30 17:43:29.091,0.101,-0.023,9.811,-0.024,0.001,-0.017,-0.0149,0.0383,-0.1065,-0.0089,0.0401,-0.0949,35,0.18,-1.42,-1.93,0.9981,0.0014,-0.0124,-0.0169,-0.012,-0.048,0.378,-0.01,-0.034,0.354,-0.251,-0.245,3.542,0
2025-05-30 17:43:29.144,0.09,-0.045,9.864,0.11,0.01,0.033,0.0447,0.1321,0.0554,0.0393,0.1245,0.0402,35,0.0,-0.57,-1.81,0.9982,-0.0001,-0.005,-0.0158,-0.01,-0.048,0.379,-0.01,-0.034,0.355,-0.252,-0.247,3.56,0
2025-05-30 17:43:29.197,0.061,-0.02,9.829,-0.032,0.015,0.0,-0.0469,-0.0682,-0.0916,-0.0384,-0.0473,-0.0786,35,0.12,-1.23,-2.04,0.9981,0.0009,-0.0107,-0.0178,-0.008,-0.047,0.379,-0.01,-0.035,0.355,-0.252,-0.249,3.578,0
2025-05-30 17:43:29.253,0.075,0.014,9.851,0.009,-0.063,0.022,0.049,-0.0107,0.0256,0.0402,-0.0128,0.015,35,0.78,-1.08,-2.01,0.9981,0.0066,-0.0095,-0.0175,-0.009,-0.049,0.379,-0.01,-0.035,0.356,-0.253,-0.251,3.596,0
2025-05-30 17:43:29.304,0.106,-0.007,9.865,0.003,0.008,0.037,-0.0149,0.0107,-0.0937,-0.0095,0.0099,-0.0831,35,0.23,-1.29,-2.23,0.9981,0.0018,-0.0113,-0.0195,-0.009,-0.051,0.38,-0.01,-0.036,0.357,-0.253,-0.252,3.614,0
2025-05-30 17:43:29.360,0.084,-0.009,9.822,0.113,-0.006,-0.009,-0.0469,0.0874,0.0575,-0.0432,0.0812,0.0433,35,0.31,-0.52,-2.11,0.9981,0.0026,-0.0046,-0.0184,-0.006,-0.05,0.381,-0.01,-0.036,0.357,-0.254,-0.254,3.631,0
2025-05-30 17:43:29.422,0.079,-0.004,9.856,0.016,-0.008,0.027,0.0256,0.0043,0.1321,0.0186,0.0135,0.123,35,0.35,-1.05,-1.76,0.9981,0.0029,-0.0093,-0.0154,-0.003,-0.05,0.381,-0.009,-0.037,0.358,-0.254,-0.256,3.649,0
2025-05-30 17:43:29.468,0.074,-0.002,9.846,-0.06,0.002,0.018,0.0916,0.0277,0.0192,0.0842,0.0278,0.0294,35,0.3,-1.47,-1.67,0.9981,0.0025,-0.0129,-0.0146,-0.005,-0.05,0.381,-0.009,-0.037,0.359,-0.255,-0.258,3.667,0
2025-05-30 17:43:29.521,0.083,-0.023,9.844,0.087,-0.006,0.013,0.0405,0.1023,0.0767,0.0447,0.0964,0.0718,35,0.22,-0.66,-1.46,0.9982,0.0018,-0.0058,-0.0127,-0.004,-0.05,0.381,-0.009,-0.037,0.36,-0.255,-0.26,3.685,0
2025-05-30 17:43:29.575,0.113,-0.025,9.822,0.064,-0.039,-0.007,0.081,0.0874,-0.0618,0.0772,0.0898,-0.0486,35,0.41,-0.97,-1.6,0.9982,0.0034,-0.0086,-0.0139,-0.0,-0.051,0.381,-0.009,-0.038,0.36,-0.255,-0.262,3.703,0
2025-05-30 17:43:29.628,0.065,-0.005,9.851,-0.014,0.02,0.022,0.0767,0.0597,0.0639,0.0766,0.0642,0.0525,35,0.17,-1.15,-1.44,0.9982,0.0014,-0.01,-0.0125,0.001,-0.052,0.381,-0.008,-0.038,0.361,-0.256,-0.264,3.721,0
2025-05-30 17:43:29.683,0.106,0.011,9.881,-0.023,-0.045,0.054,-0.0021,0.0085,-0.0021,0.0056,0.0157,0.0031,35,0.65,-1.44,-1.44,0.9981,0.0055,-0.0127,-0.0125,0.001,-0.052,0.382,-0.008,-0.039,0.362,-0.256,-0.265,3.739,0
2025-05-30 17:43:29.737,0.065,-0.031,9.856,-0.017,0.026,0.027,-0.0788,-0.0277,-0.0383,-0.0705,-0.0218,-0.0344,35,-0.01,-1.16,-1.53,0.9982,-0.0002,-0.0101,-0.0134,0.0,-0.053,0.384,-0.008,-0.039,0.362,-0.257,-0.267,3.757,0
2025-05-30 17:43:29.793,0.07,-0.027,9.853,0.054,-0.077,0.023,0.0426,0.0724,0.0,0.0312,0.0646,-0.0036,35,0.62,-0.78,-1.55,0.9982,0.0053,-0.0069,-0.0135,0.002,-0.054,0.385,-0.008,-0.04,0.363,-0.257,-0.269,3.776,0
2025-05-30 17:43:29.871,0.075,0.011,9.878,-0.049,-0.002,0.05,0.0362,-0.0703,0.032,0.0356,-0.0553,0.0282,35,0.4,-1.41,-1.46,0.9981,0.0033,-0.0124,-0.0127,0.002,-0.056,0.386,-0.007,-0.04,0.364,-0.257,-0.271,3.794,0
2025-05-30 17:43:29.898,0.086,-0.011,9.855,0.035,0.007,0.025,0.0426,-0.0192,-0.0639,0.0418,-0.0212,-0.0549,35,0.22,-0.99,-1.61,0.9982,0.0018,-0.0087,-0.0141,0.001,-0.056,0.388,-0.007,-0.04,0.364,-0.258,-0.273,3.812,0
2025-05-30 17:43:29.954,0.047,-0.014,9.846,0.059,-0.074,0.015,0.0362,-0.0298,-0.0298,0.0367,-0.0274,-0.0325,35,0.67,-0.61,-1.71,0.9982,0.0058,-0.0054,-0.0149,0.004,-0.058,0.388,-0.007,-0.041,0.365,-0.258,-0.275,3.83,0
2025-05-30 17:43:30.007,0.068,-0.014,9.864,0.004,-0.026,0.034,0.0383,-0.0085,0.1087,0.0381,-0.0088,0.0943,35,0.39,-1.06,-1.44,0.9982,0.0033,-0.0093,-0.0125,0.005,-0.06,0.388,-0.006,-0.042,0.366,-0.258,-0.278,3.849,0
2025-05-30 17:43:30.063,0.088,-0.002,9.84,-0.044,0.037,0.012,-0.0107,0.0405,0.0,-0.0059,0.0371,0.0092,35,0.1,-1.46,-1.4,0.9982,0.0007,-0.0128,-0.0123,0.004,-0.06,0.389,-0.006,-0.042,0.366,-0.259,-0.28,3.867,0
2025-05-30 17:43:30.116,0.101,-0.022,9.869,0.073,-0.004,0.039,-0.0575,0.0341,-0.0511,-0.0525,0.036,-0.0453,35,0.22,-0.85,-1.54,0.9982,0.0018,-0.0075,-0.0134,0.005,-0.059,0.39,-0.006,-0.043,0.367,-0.259,-0.282,3.885,0
2025-05-30 17:43:30.169,0.063,-0.025,9.842,-0.062,0.037,0.014,-0.0469,-0.0085,0.1214,-0.0475,-0.0025,0.1046,35,-0.04,-1.42,-1.24,0.9982,-0.0005,-0.0124,-0.0108,0.005,-0.058,0.39,-0.005,-0.043,0.368,-0.259,-0.284,3.904,0
2025-05-30 17:43:30.222,0.117,-0.002,9.831,-0.0,-0.068,0.003,0.0788,-0.0107,0.0788,0.0661,-0.0083,0.0812,35,0.71,-1.37,-1.02,0.9982,0.0061,-0.012,-0.0088,0.004,-0.058,0.39,-0.005,-0.044,0.369,-0.26,-0.286,3.922,0
2025-05-30 17:43:30.277,0.09,0.007,9.86,0.049,-0.003,0.03,0.0682,0.0788,0.0085,0.0679,0.0717,0.0156,35,0.38,-0.93,-0.96,0.9982,0.0033,-0.0081,-0.0084,0.005,-0.06,0.39,-0.005,-0.044,0.369,-0.26,-0.288,3.941,0
2025-05-30 17:43:30.332,0.043,-0.018,9.849,0.006,0.09,0.019,-0.0533,0.017,0.0937,-0.0413,0.0241,0.0857,35,-0.31,-0.9,-0.71,0.9983,-0.0027,-0.0079,-0.0062,0.006,-0.058,0.39,-0.005,-0.044,0.37,-0.26,-0.291,3.959,0
2025-05-30 17:43:30.385,0.081,-0.007,9.849,0.021,-0.003,0.02,0.0362,0.032,-0.0554,0.0284,0.0327,-0.0415,35,0.3,-1.04,-0.83,0.9982,0.0026,-0.0091,-0.0073,0.006,-0.055,0.39,-0.004,-0.045,0.37,-0.26,-0.293,3.978,0
2025-05-30 17:43:30.440,0.075,-0.004,9.887,-0.054,-0.026,0.059,0.0511,0.0597,-0.0383,0.0487,0.0585,-0.0389,35,0.45,-1.44,-0.94,0.9982,0.0039,-0.0126,-0.0082,0.006,-0.056,0.391,-0.004,-0.045,0.371,-0.26,-0.295,3.996,0
2025-05-30 17:43:30.497,0.101,-0.029,9.847,0.019,0.014,0.018,0.0426,-0.0085,0.0618,0.0431,-0.0003,0.0515,35,0.07,-1.16,-0.79,0.9982,0.0006,-0.0102,-0.0069,0.004,-0.057,0.392,-0.004,-0.045,0.372,-0.261,-0.297,4.015,0
2025-05-30 17:43:30.553,0.083,-0.038,9.829,-0.029,-0.1,0.001,0.0192,-0.0107,-0.0256,0.0215,-0.008,-0.018,35,0.69,-1.34,-0.85,0.9982,0.0059,-0.0117,-0.0074,0.004,-0.059,0.392,-0.003,-0.046,0.372,-0.261,-0.3,4.033,0
2025-05-30 17:43:30.607,0.09,0.004,9.849,0.042,0.044,0.019,-0.0277,0.0682,-0.049,-0.0229,0.0621,-0.0461,35,0.09,-0.96,-0.97,0.9982,0.0007,-0.0084,-0.0085,0.004,-0.06,0.391,-0.003,-0.046,0.373,-0.261,-0.302,4.052,0
2025-05-30 17:43:30.658,0.081,0.0,9.864,-0.012,-0.025,0.035,-0.0192,0.0298,0.0959,-0.0197,0.0346,0.0815,35,0.47,-1.23,-0.74,0.9982,0.004,-0.0108,-0.0065,0.005,-0.06,0.392,-0.003,-0.047,0.374,-0.261,-0.304,4.071,0
2025-05-30 17:43:30.714,0.061,-0.029,9.84,0.03,0.023,0.01,0.017,0.0213,-0.115,0.0133,0.0242,-0.0956,35,0.02,-0.87,-1.01,0.9982,0.0001,-0.0076,-0.0088,0.006,-0.06,0.392,-0.003,-0.047,0.374,-0.261,-0.307,4.089,0
2025-05-30 17:43:30.768,0.077,-0.014,9.84,-0.041,-0.054,0.012,0.0703,-0.0298,0.1704,0.0645,-0.0229,0.1437,35,0.56,-1.38,-0.6,0.9982,0.0048,-0.0121,-0.0052,0.005,-0.061,0.392,-0.002,-0.048,0.375,-0.261,-0.309,4.108,0
2025-05-30 17:43:30.824,0.093,0.004,9.86,0.073,0.033,0.03,0.0213,0.098,0.2045,0.0255,0.0875,0.1983,35,0.15,-0.81,-0.03,0.9983,0.0013,-0.0071,-0.0002,0.006,-0.061,0.392,-0.002,-0.048,0.375,-0.261,-0.311,4.127,0
2025-05-30 17:43:30.876,0.059,-0.02,9.887,-0.02,-0.051,0.058,0.0788,0.0703,-0.066,0.0734,0.0736,-0.0398,35,0.5,-1.15,-0.14,0.9983,0.0044,-0.01,-0.0012,0.008,-0.061,0.394,-0.002,-0.048,0.376,-0.262,-0.314,4.146,0
2025-05-30 17:43:30.932,0.074,-0.018,9.838,-0.005,0.049,0.009,-0.0107,-0.032,-0.0107,-0.0024,-0.0198,-0.0138,35,-0.07,-1.15,-0.17,0.9983,-0.0006,-0.01,-0.0015,0.008,-0.061,0.395,-0.002,-0.049,0.376,-0.262,-0.316,4.164,0
2025-05-30 17:43:30.984,0.065,0.018,9.838,0.051,-0.034,0.009,0.0533,0.1129,0.0469,0.0476,0.1012,0.0406,35,0.63,-0.77,-0.06,0.9983,0.0055,-0.0067,-0.0005,0.009,-0.061,0.395,-0.001,-0.049,0.377,-0.262,-0.319,4.183,0
2025-05-30 17:43:31.039,0.106,-0.016,9.84,0.022,0.012,0.011,-0.0575,0.0064,-0.1257,-0.0471,0.0174,-0.1093,35,0.16,-1.17,-0.37,0.9983,0.0014,-0.0103,-0.0032,0.011,-0.062,0.394,-0.001,-0.049,0.377,-0.262,-0.321,4.202,0
2025-05-30 17:43:31.092,0.074,-0.011,9.856,0.009,-0.02,0.027,-0.1044,-0.0724,-0.0746,-0.0988,-0.0619,-0.0782,35,0.38,-1.06,-0.6,0.9982,0.0032,-0.0093,-0.0052,0.012,-0.062,0.395,-0.001,-0.05,0.378,-0.262,-0.324,4.221,0
2025-05-30 17:43:31.147,0.099,-0.011,9.847,-0.034,0.06,0.019,-0.0618,0.0426,-0.1236,-0.0656,0.0337,-0.1192,35,-0.09,-1.46,-0.94,0.9982,-0.0009,-0.0128,-0.0082,0.011,-0.061,0.395,-0.0,-0.05,0.379,-0.262,-0.326,4.24,0
2025-05-30 17:43:31.200,0.068,0.0,9.876,-0.015,-0.002,0.047,0.0085,-0.0426,0.0149,0.001,-0.0334,0.0013,35,0.33,-1.17,-0.94,0.9982,0.0028,-0.0103,-0.0082,0.01,-0.06,0.396,0.0,-0.05,0.379,-0.262,-0.329,4.259,0
2025-05-30 17:43:31.255,0.077,-0.023,9.858,0.046,0.084,0.028,-0.0277,0.0703,0.2216,-0.0249,0.0615,0.1994,35,-0.31,-0.87,-0.36,0.9983,-0.0027,-0.0076,-0.0032,0.011,-0.057,0.397,0.0,-0.051,0.38,-0.262,-0.331,4.278,0
2025-05-30 17:43:31.308,0.088,-0.004,9.846,-0.002,0.033,0.016,-0.0298,-0.0341,0.0128,-0.0295,-0.023,0.0313,35,0.11,-1.21,-0.28,0.9983,0.0009,-0.0106,-0.0025,0.012,-0.054,0.398,0.001,-0.051,0.38,-0.262,-0.334,4.297,0
2025-05-30 17:43:31.361,0.061,-0.005,9.831,0.035,-0.056,0.002,0.0362,-0.0021,0.0831,0.0295,-0.0026,0.0777,35,0.62,-0.84,-0.07,0.9983,0.0054,-0.0073,-0.0005,0.013,-0.055,0.397,0.001,-0.051,0.381,-0.262,-0.336,4.316,0
2025-05-30 17:43:31.418,0.083,-0.002,9.855,-0.006,-0.009,0.026,0.049,0.0192,-0.0362,0.0469,0.0186,-0.025,35,0.37,-1.21,-0.13,0.9983,0.0032,-0.0105,-0.0011,0.014,-0.056,0.397,0.002,-0.051,0.381,-0.262,-0.339,4.335,0
2025-05-30 17:43:31.470,0.079,-0.032,9.84,-0.022,0.086,0.012,-0.0724,-0.0831,0.115,-0.0606,-0.0714,0.1009,35,-0.37,-1.28,0.17,0.9982,-0.0032,-0.0112,0.0014,0.013,-0.054,0.398,0.002,-0.051,0.382,-0.262,-0.341,4.354,0
2025-05-30 17:43:31.525,0.077,-0.032,9.846,0.019,-0.017,0.016,0.0277,0.0447,0.0,0.0188,0.0347,0.0099,35,0.23,-1.03,0.18,0.9983,0.0021,-0.009,0.0016,0.013,-0.052,0.397,0.002,-0.051,0.382,-0.261,-0.344,4.373,0
2025-05-30 17:43:31.581,0.074,-0.004,9.871,-0.065,-0.062,0.043,0.0298,-0.0107,-0.0234,0.0286,-0.0046,-0.0203,35,0.66,-1.49,0.12,0.9982,0.0058,-0.0131,0.0011,0.011,-0.053,0.398,0.002,-0.051,0.383,-0.261,-0.347,4.392,0
2025-05-30 17:43:31.632,0.075,-0.005,9.864,-0.02,-0.008,0.035,0.0298,-0.0597,0.0618,0.0296,-0.0526,0.0534,35,0.34,-1.24,0.28,0.9982,0.003,-0.0109,0.0025,0.009,-0.055,0.399,0.003,-0.051,0.383,-0.261,-0.349,4.411,0
2025-05-30 17:43:31.687,0.065,-0.005,9.856,0.022,0.022,0.026,-0.0149,-0.0916,0.0149,-0.0106,-0.0861,0.0186,35,0.16,-0.94,0.33,0.9983,0.0015,-0.0082,0.0029,0.009,-0.054,0.401,0.003,-0.051,0.384,-0.261,-0.352,4.431,0
2025-05-30 17:43:31.742,0.059,-0.018,9.815,-0.094,-0.031,-0.012,-0.0107,-0.0469,0.0767,-0.0108,-0.0492,0.0707,35,0.4,-1.58,0.53,0.9982,0.0036,-0.0138,0.0047,0.007,-0.054,0.401,0.003,-0.052,0.384,-0.261,-0.354,4.45,0
2025-05-30 17:43:31.794,0.092,-0.034,9.871,-0.007,0.025,0.042,-0.0277,-0.049,0.0064,-0.0261,-0.0475,0.0126,35,-0.02,-1.26,0.57,0.9982,-0.0001,-0.0111,0.005,0.005,-0.055,0.401,0.003,-0.052,0.385,-0.261,-0.357,4.469,0
2025-05-30 17:43:31.850,0.101,-0.002,9.849,0.001,-0.04,0.021,0.0043,0.0107,0.0746,0.0011,0.0064,0.0682,35,0.55,-1.27,0.75,0.9982,0.0049,-0.011,0.0066,0.005,-0.055,0.403,0.003,-0.052,0.385,-0.261,-0.359,4.488,0
2025-05-30 17:43:31.904,0.068,0.0,9.837,0.012,0.001,0.007,0.0831,-0.0426,-0.066,0.0748,-0.0361,-0.0528,35,0.32,-1.01,0.61,0.9983,0.0028,-0.0088,0.0054,0.005,-0.056,0.403,0.003,-0.052,0.386,-0.26,-0.362,4.508,0
2025-05-30 17:43:31.956,0.077,-0.014,9.842,-0.095,0.03,0.015,0.0085,-0.0724,0.0341,0.015,-0.0672,0.0252,35,0.06,-1.69,0.69,0.9982,0.0006,-0.0148,0.006,0.002,-0.055,0.402,0.003,-0.052,0.386,-0.26,-0.365,4.527,0
2025-05-30 17:43:32.011,0.081,-0.005,9.849,-0.044,0.032,0.021,-0.0746,-0.0916,-0.0426,-0.0657,-0.0876,-0.036,35,0.1,-1.42,0.58,0.9982,0.001,-0.0124,0.0051,-0.001,-0.053,0.402,0.003,-0.052,0.387,-0.26,-0.367,4.546,0
2025-05-30 17:43:32.065,0.061,-0.016,9.855,0.04,-0.004,0.024,-0.0043,0.0341,0.0426,-0.0105,0.0235,0.0346,35,0.25,-0.81,0.67,0.9983,0.0023,-0.0071,0.0059,-0.001,-0.053,0.403,0.003,-0.052,0.387,-0.26,-0.37,4.566,0
2025-05-30 17:43:32.118,0.095,-0.047,9.864,-0.013,-0.021,0.035,0.0618,-0.0021,-0.1172,0.0544,0.002,-0.1022,35,0.17,-1.32,0.39,0.9982,0.0015,-0.0115,0.0034,-0.0,-0.053,0.404,0.003,-0.052,0.388,-0.26,-0.372,4.585,0
2025-05-30 17:43:32.172,0.074,-0.022,9.835,0.091,0.031,0.004,-0.0937,0.0639,0.049,-0.079,0.0593,0.0337,35,0.02,-0.58,0.48,0.9983,0.0002,-0.0051,0.0042,0.002,-0.053,0.405,0.003,-0.052,0.388,-0.26,-0.375,4.605,0
2025-05-30 17:43:32.227,0.065,0.004,9.856,0.017,0.023,0.026,-0.0426,0.0277,-0.0554,-0.0464,0.0324,-0.0467,35,0.21,-0.96,0.34,0.9983,0.0018,-0.0084,0.003,0.004,-0.051,0.405,0.003,-0.052,0.389,-0.26,-0.378,4.624,0
2025-05-30 17:43:32.280,0.061,-0.009,9.855,-0.056,-0.06,0.027,0.0298,0.0128,0.049,0.0221,0.0163,0.0392,35,0.62,-1.37,0.45,0.9982,0.0055,-0.0119,0.004,0.003,-0.052,0.406,0.003,-0.052,0.389,-0.259,-0.38,4.643,0
2025-05-30 17:43:32.333,0.079,-0.011,9.876,0.006,0.019,0.047,0.0021,-0.0213,-0.0618,0.004,-0.016,-0.0519,35,0.15,-1.11,0.31,0.9983,0.0013,-0.0097,0.0027,0.002,-0.054,0.407,0.003,-0.052,0.39,-0.259,-0.383,4.663,0
2025-05-30 17:43:32.389,0.083,-0.014,9.842,-0.014,-0.038,0.013,-0.066,0.066,0.0703,-0.0592,0.0594,0.0579,35,0.46,-1.25,0.47,0.9982,0.0041,-0.0109,0.0041,0.002,-0.054,0.408,0.003,-0.052,0.391,-0.259,-0.385,4.682,0
2025-05-30 17:43:32.441,0.108,-0.05,9.874,-0.013,0.025,0.046,0.0,-0.032,-0.098,-0.006,-0.0213,-0.0826,35,-0.12,-1.39,0.24,0.9982,-0.001,-0.0122,0.0021,0.002,-0.055,0.409,0.003,-0.052,0.391,-0.259,-0.388,4.702,0
2025-05-30 17:43:32.501,0.057,-0.018,9.849,0.024,-0.033,0.019,0.0575,0.0341,-0.0085,0.0511,0.0301,-0.0161,35,0.41,-0.88,0.19,0.9983,0.0036,-0.0077,0.0017,0.002,-0.055,0.41,0.003,-0.052,0.392,-0.259,-0.391,4.722,0
2025-05-30 17:43:32.556,0.084,0.004,9.865,-0.041,-0.059,0.038,0.1534,0.0043,0.017,0.1431,0.0084,0.0135,35,0.69,-1.42,0.23,0.9982,0.0061,-0.0124,0.0021,0.002,-0.057,0.41,0.003,-0.052,0.392,-0.259,-0.393,4.741,0
2025-05-30 17:43:32.610,0.054,-0.02,9.858,-0.032,0.0,0.029,-0.0362,-0.0597,-0.0383,-0.0184,-0.0513,-0.0333,35,0.21,-1.19,0.14,0.9983,0.0018,-0.0104,0.0013,-0.0,-0.059,0.411,0.003,-0.053,0.393,-0.259,-0.396,4.761,0
2025-05-30 17:43:32.664,0.083,-0.007,9.846,0.052,-0.066,0.016,-0.0341,0.0788,0.0511,-0.0326,0.0674,0.0425,35,0.67,-0.86,0.25,0.9983,0.0058,-0.0075,0.0023,0.0,-0.06,0.412,0.003,-0.053,0.393,-0.258,-0.399,4.781,0
2025-05-30 17:43:32.719,0.061,-0.029,9.846,-0.007,-0.021,0.016,0.0618,-0.0213,0.0149,0.0522,-0.0109,0.0175,35,0.28,-1.09,0.31,0.9983,0.0024,-0.0095,0.0028,0.002,-0.062,0.411,0.003,-0.053,0.394,-0.258,-0.401,4.8,0
2025-05-30 17:43:32.772,0.092,-0.011,9.855,-0.106,0.021,0.028,-0.0341,-0.0746,-0.049,-0.0256,-0.0666,-0.0425,35,0.14,-1.84,0.19,0.9982,0.0012,-0.0161,0.0017,-0.001,-0.062,0.412,0.002,-0.053,0.394,-0.258,-0.404,4.82,0
2025-05-30 17:43:32.824,0.072,-0.004,9.867,-0.029,-0.006,0.038,0.032,0.0085,-0.0021,0.0261,0.0026,-0.0064,35,0.34,-1.28,0.17,0.9982,0.003,-0.0112,0.0015,-0.004,-0.062,0.413,0.002,-0.054,0.395,-0.258,-0.407,4.84,0
2025-05-30 17:43:32.882,0.081,-0.018,9.837,0.095,0.043,0.006,0.0128,0.1044,0.0064,0.014,0.0958,0.0049,35,-0.03,-0.6,0.19,0.9983,-0.0003,-0.0053,0.0017,-0.003,-0.061,0.413,0.002,-0.054,0.396,-0.258,-0.409,4.859,0
2025-05-30 17:43:32.934,0.084,-0.02,9.858,0.029,-0.01,0.028,0.0277,0.0362,-0.0362,0.0262,0.0437,-0.0323,35,0.26,-1.01,0.1,0.9983,0.0023,-0.0088,0.0009,0.0,-0.059,0.414,0.002,-0.054,0.396,-0.258,-0.412,4.879,0
2025-05-30 17:43:32.987,0.07,-0.011,9.851,-0.026,0.047,0.022,-0.1023,0.1214,0.0149,-0.0895,0.1152,0.01,35,-0.02,-1.25,0.13,0.9983,-0.0001,-0.0109,0.0011,0.001,-0.058,0.415,0.002,-0.054,0.397,-0.258,-0.415,4.899,0
2025-05-30 17:43:33.039,0.072,-0.016,9.887,0.026,0.01,0.057,-0.1065,-0.0128,0.1278,-0.1049,0.0016,0.1159,35,0.17,-0.95,0.45,0.9983,0.0015,-0.0083,0.0039,0.001,-0.057,0.416,0.002,-0.054,0.397,-0.258,-0.417,4.919,0
2025-05-30 17:43:33.094,0.066,-0.005,9.855,-0.062,0.008,0.026,-0.115,-0.0341,-0.0213,-0.1141,-0.029,-0.0078,35,0.25,-1.44,0.42,0.9982,0.0022,-0.0126,0.0037,-0.0,-0.057,0.418,0.002,-0.054,0.398,-0.258,-0.42,4.939,0
2025-05-30 17:43:33.150,0.059,-0.014,9.853,0.045,0.008,0.022,-0.0021,0.0405,0.0895,-0.0134,0.0351,0.0796,35,0.19,-0.77,0.65,0.9983,0.0017,-0.0067,0.0057,-0.001,-0.057,0.419,0.002,-0.054,0.399,-0.257,-0.423,4.959,0
2025-05-30 17:43:33.204,0.088,-0.011,9.847,-0.043,-0.002,0.019,-0.0043,-0.0533,-0.1747,-0.0053,-0.0429,-0.1495,35,0.27,-1.45,0.22,0.9982,0.0024,-0.0127,0.0019,-0.001,-0.057,0.419,0.002,-0.054,0.399,-0.257,-0.426,4.979,0
2025-05-30 17:43:33.258,0.07,-0.048,9.842,-0.004,0.013,0.013,0.0,-0.0533,-0.081,-0.0006,-0.0507,-0.088,35,-0.04,-1.12,-0.03,0.9983,-0.0003,-0.0098,-0.0002,-0.002,-0.057,0.418,0.002,-0.055,0.4,-0.257,-0.428,4.999,0
2025-05-30 17:43:33.311,0.084,-0.011,9.846,-0.004,-0.053,0.017,0.017,0.017,-0.1172,0.0152,0.0118,-0.1145,35,0.57,-1.2,-0.36,0.9982,0.005,-0.0105,-0.0031,-0.002,-0.058,0.418,0.002,-0.055,0.4,-0.257,-0.431,5.019,0
2025-05-30 17:43:33.365,0.102,0.005,9.864,0.042,-0.001,0.034,0.1236,0.1385,-0.0256,0.1126,0.1274,-0.0346,35,0.36,-1.04,-0.45,0.9983,0.0031,-0.0091,-0.0039,-0.001,-0.059,0.418,0.001,-0.055,0.401,-0.257,-0.434,5.039,0
2025-05-30 17:43:33.419,0.057,-0.011,9.826,0.04,0.045,-0.005,0.066,0.049,-0.0085,0.0706,0.0584,-0.0113,35,-0.0,-0.79,-0.47,0.9983,-0.0,-0.0069,-0.0041,0.001,-0.058,0.419,0.001,-0.055,0.401,-0.257,-0.436,5.059,0
2025-05-30 17:43:33.474,0.092,-0.002,9.867,-0.014,-0.033,0.039,0.0575,-0.0277,-0.0043,0.0587,-0.0175,-0.0052,35,0.5,-1.3,-0.49,0.9982,0.0043,-0.0114,-0.0042,0.002,-0.058,0.419,0.001,-0.055,0.402,-0.257,-0.439,5.079,0
2025-05-30 17:43:33.527,0.084,-0.013,9.855,0.024,0.061,0.025,-0.0426,0.0064,0.0341,-0.0326,0.0056,0.03,35,-0.11,-1.04,-0.4,0.9983,-0.001,-0.0091,-0.0035,0.003,-0.057,0.42,0.002,-0.055,0.403,-0.257,-0.442,5.099,0
2025-05-30 17:43:33.580,0.088,-0.023,9.901,0.005,-0.028,0.072,-0.0149,0.0511,-0.0447,-0.0168,0.0481,-0.0375,35,0.35,-1.17,-0.51,0.9982,0.003,-0.0103,-0.0044,0.003,-0.056,0.422,0.002,-0.055,0.403,-0.257,-0.445,5.119,0
2025-05-30 17:43:33.635,0.079,-0.018,9.867,0.029,0.079,0.037,-0.0128,0.0277,-0.0597,-0.0133,0.0313,-0.0576,35,-0.25,-0.98,-0.67,0.9983,-0.0022,-0.0086,-0.0058,0.004,-0.055,0.425,0.002,-0.055,0.404,-0.257,-0.448,5.139,0
2025-05-30 17:43:33.690,0.065,-0.013,9.844,0.002,-0.016,0.014,0.0128,0.0043,0.081,0.0101,0.0085,0.0669,35,0.34,-1.05,-0.49,0.9983,0.003,-0.0092,-0.0042,0.005,-0.053,0.425,0.002,-0.055,0.404,-0.257,-0.45,5.16,0
2025-05-30 17:43:33.743,0.07,-0.018,9.855,-0.002,0.069,0.025,0.0043,0.049,0.032,0.0047,0.0465,0.0353,35,-0.19,-1.11,-0.37,0.9983,-0.0017,-0.0097,-0.0033,0.005,-0.051,0.425,0.002,-0.055,0.405,-0.257,-0.453,5.18,0
2025-05-30 17:43:33.798,0.083,-0.007,9.844,0.001,-0.036,0.015,0.0426,0.0021,0.0064,0.0387,0.0081,0.0091,35,0.49,-1.16,-0.36,0.9982,0.0043,-0.0102,-0.0031,0.005,-0.05,0.426,0.002,-0.055,0.406,-0.257,-0.456,5.2,0
2025-05-30 17:43:33.853,0.057,-0.016,9.876,0.023,0.005,0.046,0.0788,0.0,0.0511,0.0747,0.0024,0.0467,35,0.2,-0.89,-0.22,0.9983,0.0017,-0.0077,-0.0019,0.005,-0.051,0.426,0.002,-0.055,0.406,-0.256,-0.458,5.221,0
2025-05-30 17:43:33.907,0.048,-0.005,9.872,-0.051,0.009,0.044,-0.1577,-0.0021,-0.0341,-0.1345,-0.0001,-0.0262,35,0.24,-1.27,-0.3,0.9982,0.0021,-0.0111,-0.0026,0.005,-0.051,0.428,0.002,-0.055,0.407,-0.256,-0.461,5.241,0
2025-05-30 17:43:33.960,0.061,-0.005,9.862,0.038,0.02,0.031,-0.0597,-0.0447,-0.049,-0.0673,-0.0387,-0.0469,35,0.18,-0.82,-0.43,0.9983,0.0015,-0.0072,-0.0038,0.004,-0.051,0.43,0.002,-0.054,0.408,-0.256,-0.464,5.261,0
2025-05-30 17:43:34.015,0.068,-0.011,9.84,-0.032,0.025,0.011,-0.0852,0.0383,-0.0554,-0.0835,0.0322,-0.0547,35,0.11,-1.27,-0.59,0.9982,0.0009,-0.0111,-0.0052,0.005,-0.05,0.43,0.002,-0.054,0.408,-0.256,-0.467,5.282,0
2025-05-30 17:43:34.066,0.09,-0.009,9.862,0.013,-0.058,0.033,-0.0021,-0.032,0.098,-0.0104,-0.024,0.0825,35,0.61,-1.14,-0.37,0.9982,0.0053,-0.0099,-0.0032,0.004,-0.051,0.43,0.002,-0.054,0.409,-0.256,-0.469,5.302,0
2025-05-30 17:43:34.122,0.074,0.004,9.853,-0.013,0.058,0.024,-0.0149,-0.0362,-0.1214,-0.0146,-0.0334,-0.1012,35,0.0,-1.19,-0.65,0.9982,-0.0,-0.0104,-0.0057,0.004,-0.051,0.431,0.002,-0.054,0.41,-0.256,-0.472,5.323,0
2025-05-30 17:43:34.175,0.083,-0.013,9.86,0.011,-0.031,0.031,-0.0554,0.0149,-0.0128,-0.0514,0.0116,-0.0218,35,0.43,-1.11,-0.72,0.9982,0.0037,-0.0097,-0.0063,0.004,-0.05,0.432,0.002,-0.054,0.41,-0.256,-0.475,5.343,0
2025-05-30 17:43:34.229,0.093,-0.023,9.844,-0.052,0.04,0.016,0.0149,-0.066,-0.0597,0.0082,-0.0567,-0.0561,35,-0.05,-1.54,-0.87,0.9982,-0.0005,-0.0134,-0.0076,0.002,-0.05,0.433,0.002,-0.054,0.411,-0.256,-0.477,5.364,0
2025-05-30 17:43:34.283,0.057,-0.007,9.853,-0.037,0.009,0.024,-0.0149,-0.066,-0.0383,-0.0127,-0.0635,-0.0403,35,0.23,-1.24,-0.99,0.9982,0.0019,-0.0108,-0.0087,0.0,-0.049,0.433,0.002,-0.054,0.412,-0.255,-0.48,5.384,0
2025-05-30 17:43:34.337,0.079,-0.013,9.842,0.088,-0.033,0.012,0.0277,0.0256,0.0618,0.0235,0.0182,0.0514,35,0.44,-0.63,-0.85,0.9983,0.0038,-0.0056,-0.0074,0.002,-0.049,0.433,0.002,-0.054,0.412,-0.255,-0.483,5.405,0
2025-05-30 17:43:34.391,0.059,-0.011,9.833,0.006,0.015,0.003,-0.017,0.0575,-0.0788,-0.0131,0.0552,-0.066,35,0.17,-1.0,-1.03,0.9982,0.0014,-0.0087,-0.009,0.004,-0.05,0.433,0.002,-0.053,0.413,-0.255,-0.485,5.426,0
2025-05-30 17:43:34.447,0.09,-0.022,9.847,-0.067,0.0,0.02,-0.0149,-0.0234,0.0021,-0.0148,-0.014,-0.0049,35,0.2,-1.6,-1.05,0.9982,0.0016,-0.014,-0.0091,0.002,-0.05,0.432,0.002,-0.053,0.414,-0.255,-0.488,5.446,0
2025-05-30 17:43:34.506,0.066,-0.007,9.867,0.031,-0.017,0.037,0.0405,0.0575,0.1065,0.0348,0.0519,0.0952,35,0.38,-0.89,-0.78,0.9983,0.0033,-0.0078,-0.0068,0.001,-0.05,0.433,0.002,-0.053,0.414,-0.255,-0.491,5.467,0
2025-05-30 17:43:34.561,0.079,-0.014,9.876,-0.045,0.037,0.048,-0.0341,-0.0149,-0.0085,-0.0273,-0.0067,0.0017,35,0.02,-1.41,-0.77,0.9982,0.0001,-0.0123,-0.0067,0.001,-0.049,0.434,0.002,-0.053,0.415,-0.255,-0.493,5.488,0
2025-05-30 17:43:34.614,0.101,-0.004,9.878,0.057,-0.062,0.049,0.0554,0.0831,0.13,0.047,0.0757,0.1169,35,0.66,-0.94,-0.44,0.9983,0.0058,-0.0082,-0.0038,0.001,-0.05,0.436,0.002,-0.053,0.415,-0.255,-0.496,5.508,0
2025-05-30 17:43:34.668,0.072,-0.022,9.871,-0.051,-0.015,0.042,0.0575,-0.1172,-0.0256,0.0564,-0.0963,-0.0115,35,0.28,-1.41,-0.47,0.9982,0.0024,-0.0123,-0.0041,0.001,-0.051,0.438,0.002,-0.053,0.416,-0.255,-0.499,5.529,0
2025-05-30 17:43:34.722,0.079,-0.02,9.874,0.07,-0.047,0.044,0.1364,0.0554,0.0788,0.1282,0.0418,0.0696,35,0.48,-0.74,-0.26,0.9983,0.0042,-0.0065,-0.0023,0.002,-0.052,0.44,0.002,-0.053,0.417,-0.255,-0.501,5.55,0
2025-05-30 17:43:34.776,0.092,0.004,9.858,0.024,-0.01,0.029,0.0192,0.0767,0.1811,0.03,0.0748,0.1698,35,0.4,-1.08,0.23,0.9983,0.0035,-0.0094,0.002,0.004,-0.053,0.441,0.002,-0.053,0.418,-0.254,-0.504,5.571,0
2025-05-30 17:43:34.828,0.088,-0.031,9.851,0.021,0.006,0.021,0.0852,0.0852,0.0234,0.0796,0.0857,0.0379,35,0.11,-1.08,0.35,0.9983,0.001,-0.0094,0.003,0.005,-0.053,0.442,0.002,-0.053,0.418,-0.254,-0.507,5.592,0
2025-05-30 17:43:34.880,0.068,-0.031,9.838,-0.025,-0.123,0.01,0.0703,-0.0192,0.1044,0.0711,-0.0071,0.0976,35,0.87,-1.23,0.61,0.9982,0.0076,-0.0107,0.0054,0.005,-0.056,0.442,0.002,-0.053,0.419,-0.254,-0.509,5.613,0
2025-05-30 17:43:34.935,0.068,-0.027,9.842,0.026,-0.022,0.012,-0.0107,0.0703,0.0447,-0.0026,0.0641,0.0498,35,0.3,-0.93,0.77,0.9983,0.0026,-0.0081,0.0067,0.005,-0.06,0.442,0.002,-0.053,0.42,-0.254,-0.512,5.634,0
2025-05-30 17:43:34.991,0.086,0.0,9.847,-0.06,0.021,0.02,-0.0597,-0.0234,0.0234,-0.0541,-0.0131,0.0259,35,0.2,-1.54,0.84,0.9982,0.0019,-0.0134,0.0074,0.004,-0.06,0.441,0.003,-0.054,0.42,-0.254,-0.515,5.655,0
2025-05-30 17:43:35.047,0.093,0.023,9.874,0.016,-0.032,0.046,0.0383,-0.0149,0.0767,0.029,-0.0132,0.0714,35,0.64,-1.14,1.04,0.9982,0.0057,-0.0099,0.0091,0.003,-0.06,0.442,0.003,-0.054,0.421,-0.254,-0.517,5.676,0
2025-05-30 17:43:35.099,0.081,-0.007,9.84,-0.017,0.027,0.011,0.017,-0.032,0.0511,0.0181,-0.0285,0.053,35,0.12,-1.26,1.2,0.9982,0.0012,-0.011,0.0105,0.003,-0.06,0.443,0.003,-0.054,0.422,-0.254,-0.52,5.697,0
2025-05-30 17:43:35.152,0.061,-0.011,9.855,0.022,0.016,0.025,-0.1044,-0.0533,0.032,-0.0923,-0.0492,0.0339,35,0.17,-0.92,1.29,0.9982,0.0016,-0.008,0.0113,0.003,-0.06,0.443,0.003,-0.054,0.422,-0.254,-0.523,5.718,0
2025-05-30 17:43:35.210,0.048,0.009,9.887,0.006,-0.08,0.058,0.0575,0.0511,0.0043,0.0424,0.0427,0.007,35,0.84,-0.93,1.3,0.9982,0.0075,-0.0081,0.0114,0.004,-0.061,0.444,0.003,-0.054,0.423,-0.253,-0.526,5.739,0
2025-05-30 17:43:35.261,0.081,0.005,9.876,-0.004,-0.015,0.047,0.0447,-0.0085,0.147,0.0444,-0.0018,0.1328,35,0.44,-1.18,1.69,0.9981,0.004,-0.0103,0.0148,0.004,-0.063,0.447,0.003,-0.055,0.424,-0.253,-0.528,5.76,0
2025-05-30 17:43:35.316,0.09,-0.022,9.853,-0.009,0.068,0.024,-0.0341,-0.0043,-0.0043,-0.0264,-0.0025,0.0093,35,-0.2,-1.26,1.73,0.9981,-0.0016,-0.011,0.0151,0.004,-0.062,0.448,0.003,-0.055,0.425,-0.253,-0.531,5.782,0
2025-05-30 17:43:35.367,0.083,-0.009,9.86,0.013,-0.023,0.031,0.017,0.0213,-0.115,0.0126,0.0205,-0.1028,35,0.41,-1.09,1.42,0.9982,0.0037,-0.0095,0.0125,0.004,-0.061,0.449,0.003,-0.055,0.425,-0.253,-0.534,5.803,0
2025-05-30 17:43:35.423,0.088,-0.002,9.858,-0.034,0.038,0.03,0.0213,0.0469,0.0341,0.0203,0.0458,0.0202,35,0.09,-1.4,1.49,0.9982,0.001,-0.0122,0.013,0.003,-0.06,0.45,0.003,-0.055,0.426,-0.253,-0.536,5.824,0
2025-05-30 17:43:35.479,0.074,-0.048,9.851,0.061,0.012,0.021,-0.0128,0.0213,-0.2024,-0.0096,0.0253,-0.1803,35,-0.03,-0.76,0.98,0.9983,-0.0002,-0.0067,0.0085,0.004,-0.059,0.451,0.003,-0.055,0.427,-0.253,-0.539,5.846,0
2025-05-30 17:43:35.531,0.081,-0.007,9.867,0.029,0.016,0.037,-0.0511,0.081,-0.0064,-0.0471,0.077,-0.024,35,0.19,-0.99,0.9,0.9982,0.0017,-0.0087,0.0079,0.006,-0.059,0.452,0.003,-0.055,0.428,-0.253,-0.542,5.867,0
2025-05-30 17:43:35.587,0.081,-0.009,9.883,-0.061,-0.03,0.056,0.0085,-0.0149,0.017,0.0028,-0.0042,0.0128,35,0.45,-1.52,0.93,0.9982,0.004,-0.0132,0.0082,0.005,-0.06,0.454,0.003,-0.056,0.428,-0.253,-0.545,5.888,0
2025-05-30 17:43:35.639,0.075,-0.022,9.849,0.035,0.024,0.019,-0.032,0.0426,0.017,-0.0286,0.0395,0.0164,35,0.06,-0.92,0.99,0.9982,0.0006,-0.0081,0.0086,0.004,-0.06,0.454,0.003,-0.056,0.429,-0.252,-0.548,5.91,0
2025-05-30 17:43:35.692,0.07,-0.027,9.837,-0.056,-0.001,0.008,-0.0746,-0.0128,-0.1364,-0.0701,-0.006,-0.1213,35,0.17,-1.42,0.64,0.9982,0.0015,-0.0124,0.0056,0.004,-0.059,0.454,0.003,-0.056,0.43,-0.252,-0.55,5.931,0
2025-05-30 17:43:35.746,0.074,-0.005,9.844,0.022,-0.066,0.015,0.1236,-0.0362,0.0895,0.1041,-0.0316,0.0682,35,0.68,-0.99,0.83,0.9982,0.006,-0.0086,0.0073,0.003,-0.061,0.454,0.003,-0.056,0.431,-0.252,-0.553,5.953,0
2025-05-30 17:43:35.800,0.065,-0.014,9.833,-0.036,0.052,0.004,-0.081,-0.0703,0.0277,-0.0626,-0.0649,0.0316,35,-0.07,-1.28,0.93,0.9982,-0.0005,-0.0112,0.0081,0.003,-0.061,0.453,0.003,-0.056,0.431,-0.252,-0.556,5.974,0
2025-05-30 17:43:35.853,0.061,-0.007,9.835,-0.0,-0.022,0.005,0.0064,-0.0277,-0.0469,-0.0006,-0.0298,-0.0392,35,0.41,-1.05,0.8,0.9982,0.0037,-0.0091,0.0071,0.002,-0.06,0.453,0.003,-0.056,0.432,-0.252,-0.559,5.996,0
2025-05-30 17:43:35.908,0.066,-0.004,9.858,0.019,0.057,0.028,0.0447,0.0916,0.0767,0.0401,0.081,0.0649,35,-0.03,-0.96,1.0,0.9982,-0.0002,-0.0084,0.0087,0.002,-0.059,0.453,0.003,-0.056,0.433,-0.252,-0.562,6.018,0
2025-05-30 17:43:35.961,0.065,-0.014,9.851,-0.015,-0.079,0.022,0.0724,-0.0043,0.0213,0.0691,0.0058,0.0255,35,0.7,-1.15,1.06,0.9982,0.0062,-0.01,0.0094,0.002,-0.06,0.454,0.003,-0.056,0.433,-0.251,-0.564,6.039,0
2025-05-30 17:43:36.016,0.061,-0.016,9.869,-0.029,-0.007,0.04,0.0447,-0.0746,0.115,0.0471,-0.065,0.1059,35,0.27,-1.21,1.38,0.9982,0.0025,-0.0106,0.012,0.001,-0.062,0.455,0.003,-0.057,0.434,-0.251,-0.567,6.061,0
2025-05-30 17:43:36.071,0.084,-0.018,9.865,0.023,0.081,0.036,-0.0213,-0.0447,-0.081,-0.0146,-0.0452,-0.0625,35,-0.26,-1.05,1.21,0.9982,-0.0022,-0.0092,0.0105,0.001,-0.06,0.456,0.003,-0.057,0.435,-0.251,-0.57,6.083,0
2025-05-30 17:43:36.123,0.081,-0.02,9.842,0.019,-0.015,0.012,-0.0021,0.0554,-0.081,-0.0035,0.0469,-0.0793,35,0.29,-1.05,0.97,0.9982,0.0026,-0.0091,0.0085,0.001,-0.058,0.457,0.003,-0.057,0.435,-0.251,-0.573,6.105,0
2025-05-30 17:43:36.181,0.059,-0.009,9.862,0.062,0.071,0.031,0.0107,0.0085,-0.0021,0.0091,0.0139,-0.01,35,-0.14,-0.67,0.95,0.9983,-0.0012,-0.0059,0.0083,0.003,-0.056,0.457,0.003,-0.057,0.436,-0.251,-0.576,6.126,0
2025-05-30 17:43:36.232,0.045,-0.02,9.826,0.003,0.001,-0.004,-0.0405,0.0341,0.032,-0.0356,0.0336,0.0276,35,0.2,-0.93,1.02,0.9982,0.0018,-0.0081,0.0089,0.004,-0.054,0.457,0.003,-0.057,0.437,-0.251,-0.579,6.148,0
2025-05-30 17:43:36.289,0.088,-0.005,9.865,-0.059,0.021,0.038,-0.0788,-0.0341,0.0,-0.0746,-0.0257,0.0026,35,0.17,-1.55,1.02,0.9982,0.0016,-0.0135,0.009,0.003,-0.053,0.458,0.003,-0.056,0.437,-0.251,-0.581,6.17,0
2025-05-30 17:43:36.341,0.093,-0.029,9.84,0.042,-0.004,0.01,0.0213,-0.0021,-0.081,0.0116,-0.0029,-0.0728,35,0.18,-0.98,0.82,0.9982,0.0016,-0.0086,0.0072,0.003,-0.053,0.458,0.003,-0.056,0.438,-0.251,-0.584,6.192,0
2025-05-30 17:43:36.394,0.075,-0.031,9.865,-0.114,-0.034,0.039,0.115,-0.1001,-0.0383,0.1046,-0.0888,-0.042,35,0.34,-1.79,0.7,0.9982,0.0031,-0.0156,0.0061,0.001,-0.054,0.459,0.003,-0.056,0.439,-0.25,-0.587,6.214,0
2025-05-30 17:43:36.449,0.066,-0.02,9.844,-0.061,0.034,0.016,-0.098,-0.0703,0.0639,-0.0779,-0.0706,0.0531,35,0.01,-1.43,0.85,0.9982,0.0002,-0.0125,0.0074,-0.004,-0.053,0.459,0.002,-0.056,0.439,-0.25,-0.59,6.236,0
2025-05-30 17:43:36.507,0.081,-0.02,9.847,0.015,0.011,0.018,-0.0703,-0.0341,-0.0447,-0.0712,-0.0362,-0.0351,35,0.15,-1.07,0.74,0.9982,0.0013,-0.0094,0.0065,-0.005,-0.053,0.459,0.002,-0.056,0.44,-0.25,-0.593,6.258,0
2025-05-30 17:43:36.562,0.074,-0.018,9.847,-0.023,-0.068,0.019,0.0021,0.049,0.0043,-0.0053,0.0421,0.0001,35,0.62,-1.25,0.73,0.9982,0.0055,-0.0109,0.0065,-0.006,-0.054,0.458,0.002,-0.056,0.44,-0.25,-0.595,6.28,0
2025-05-30 17:43:36.616,0.061,-0.011,9.856,0.016,0.027,0.026,-0.0064,0.0,0.0511,-0.0064,0.0058,0.0458,35,0.1,-0.95,0.87,0.9982,0.001,-0.0083,0.0076,-0.006,-0.055,0.459,0.002,-0.056,0.441,-0.25,-0.598,6.302,0
2025-05-30 17:43:36.672,0.075,0.0,9.849,-0.06,-0.049,0.022,0.0256,-0.0682,-0.0043,0.0223,-0.0592,0.0006,35,0.61,-1.48,0.86,0.9982,0.0054,-0.0129,0.0076,-0.008,-0.056,0.459,0.001,-0.056,0.441,-0.25,-0.601,6.324,0
2025-05-30 17:43:36.724,0.077,-0.029,9.819,0.052,-0.051,-0.011,0.1172,0.1236,0.017,0.1076,0.1069,0.0152,35,0.46,-0.83,0.92,0.9982,0.004,-0.0073,0.0081,-0.008,-0.058,0.459,0.001,-0.056,0.442,-0.25,-0.604,6.346,0
2025-05-30 17:43:36.776,0.052,0.005,9.865,-0.03,0.04,0.036,-0.0192,0.0447,0.1087,-0.0066,0.0525,0.0991,35,0.12,-1.16,1.21,0.9982,0.0012,-0.0102,0.0106,-0.007,-0.058,0.46,0.001,-0.056,0.443,-0.25,-0.607,6.368,0
2025-05-30 17:43:36.833,0.081,-0.014,9.851,-0.029,-0.06,0.023,-0.0405,-0.081,-0.0192,-0.0372,-0.066,-0.0075,35,0.59,-1.33,1.18,0.9982,0.0053,-0.0116,0.0104,-0.009,-0.059,0.461,0.001,-0.056,0.443,-0.25,-0.609,6.39,0
2025-05-30 17:43:36.885,0.088,-0.023,9.853,0.043,0.044,0.023,-0.0405,0.0852,-0.0639,-0.0403,0.0717,-0.0585,35,-0.07,-0.95,1.02,0.9982,-0.0005,-0.0083,0.0089,-0.009,-0.059,0.462,0.0,-0.056,0.444,-0.25,-0.612,6.413,0
2025-05-30 17:43:36.940,0.084,0.0,9.86,-0.012,0.01,0.031,-0.0533,-0.0128,0.2131,-0.0521,-0.0028,0.1857,35,0.27,-1.25,1.54,0.9982,0.0025,-0.0109,0.0135,-0.007,-0.058,0.462,0.0,-0.056,0.444,-0.25,-0.615,6.435,0
2025-05-30 17:43:36.994,0.084,-0.007,9.835,0.065,-0.041,0.005,0.0511,-0.0426,0.0043,0.0407,-0.0371,0.0222,35,0.52,-0.8,1.61,0.9982,0.0046,-0.0069,0.0141,-0.006,-0.059,0.463,-0.0,-0.056,0.445,-0.25,-0.618,6.457,0
2025-05-30 17:43:37.048,0.083,-0.013,9.835,0.047,-0.01,0.005,0.0426,0.1449,-0.0597,0.0423,0.1282,-0.0517,35,0.31,-0.9,1.47,0.9982,0.0028,-0.0078,0.0128,-0.003,-0.06,0.462,-0.0,-0.057,0.445,-0.25,-0.621,6.479,0
2025-05-30 17:43:37.101,0.075,0.004,9.865,-0.036,-0.012,0.037,0.0021,0.032,-0.049,0.006,0.0432,-0.0495,35,0.42,-1.34,1.32,0.9982,0.0038,-0.0116,0.0116,-0.003,-0.06,0.463,-0.0,-0.057,0.446,-0.25,-0.624,6.502,0
2025-05-30 17:43:37.157,0.086,0.007,9.876,0.043,-0.016,0.046,0.0895,-0.0618,-0.017,0.081,-0.0497,-0.0205,35,0.46,-0.94,1.27,0.9982,0.0041,-0.0082,0.0111,-0.003,-0.06,0.464,-0.0,-0.057,0.446,-0.25,-0.626,6.524,0
2025-05-30 17:43:37.211,0.074,0.011,9.856,-0.05,0.011,0.028,0.0213,0.0256,-0.049,0.0272,0.0196,-0.0463,35,0.32,-1.41,1.14,0.9982,0.0029,-0.0123,0.01,-0.003,-0.06,0.466,-0.0,-0.057,0.447,-0.25,-0.629,6.546,0
2025-05-30 17:43:37.266,0.088,-0.023,9.864,0.007,0.033,0.034,-0.0085,-0.0937,0.0895,-0.0051,-0.0808,0.0757,35,-0.01,-1.16,1.36,0.9982,0.0001,-0.0102,0.0119,-0.004,-0.059,0.467,-0.0,-0.057,0.448,-0.25,-0.632,6.569,0
2025-05-30 17:43:37.318,0.09,-0.016,9.862,0.025,-0.07,0.033,0.0341,0.0916,0.0234,0.0301,0.0759,0.0285,35,0.64,-1.06,1.43,0.9982,0.0057,-0.0092,0.0126,-0.003,-0.06,0.468,-0.001,-0.057,0.448,-0.25,-0.635,6.591,0
2025-05-30 17:43:37.372,0.09,0.002,9.851,-0.016,0.001,0.022,0.0746,-0.0064,-0.0533,0.07,0.0034,-0.0453,35,0.33,-1.3,1.31,0.9982,0.003,-0.0114,0.0115,-0.003,-0.061,0.469,-0.001,-0.057,0.449,-0.25,-0.638,6.613,0
2025-05-30 17:43:37.426,0.081,-0.004,9.855,0.054,0.009,0.024,0.0,-0.0405,0.0618,0.0069,-0.0345,0.0509,35,0.25,-0.84,1.46,0.9982,0.0023,-0.0073,0.0128,-0.001,-0.061,0.47,-0.001,-0.057,0.45,-0.25,-0.641,6.636,0
2025-05-30 17:43:37.484,0.075,-0.022,9.864,-0.027,0.008,0.035,0.0,0.049,0.0213,0.0006,0.0422,0.0241,35,0.15,-1.28,1.53,0.9982,0.0014,-0.0112,0.0134,-0.001,-0.061,0.471,-0.001,-0.057,0.45,-0.25,-0.644,6.658,0
2025-05-30 17:43:37.533,0.074,0.002,9.838,0.041,-0.021,0.009,-0.049,0.0043,-0.1427,-0.0442,0.0096,-0.1263,35,0.46,-0.88,1.16,0.9982,0.0041,-0.0076,0.0102,-0.0,-0.062,0.471,-0.001,-0.058,0.451,-0.25,-0.646,6.681,0
2025-05-30 17:43:37.590,0.072,-0.007,9.862,-0.029,0.07,0.033,-0.0874,0.017,-0.0021,-0.0831,0.0179,-0.0147,35,-0.13,-1.28,1.13,0.9982,-0.001,-0.0112,0.0099,-0.0,-0.06,0.471,-0.001,-0.058,0.452,-0.25,-0.649,6.704,0
2025-05-30 17:43:37.641,0.093,-0.016,9.844,0.006,0.012,0.015,-0.1001,0.0,-0.0021,-0.0985,0.0034,-0.0036,35,0.16,-1.2,1.11,0.9982,0.0015,-0.0105,0.0097,-0.001,-0.059,0.472,-0.001,-0.058,0.452,-0.25,-0.652,6.726,0
2025-05-30 17:43:37.697,0.081,-0.014,9.853,0.038,-0.06,0.023,-0.0213,0.0021,0.0128,-0.0291,0.0038,0.011,35,0.59,-0.94,1.13,0.9982,0.0052,-0.0081,0.0099,0.0,-0.06,0.472,-0.001,-0.058,0.453,-0.25,-0.655,6.749,0
2025-05-30 17:43:37.748,0.077,-0.007,9.862,-0.014,0.011,0.033,0.0447,0.0085,-0.0575,0.0372,0.0096,-0.0509,35,0.22,-1.22,0.99,0.9982,0.002,-0.0107,0.0087,0.001,-0.062,0.473,-0.001,-0.058,0.453,-0.25,-0.658,6.771,0
2025-05-30 17:43:37.803,0.061,0.005,9.871,0.005,-0.105,0.042,0.1534,-0.1001,0.0192,0.1417,-0.0876,0.012,35,0.97,-1.02,1.02,0.9982,0.0085,-0.0088,0.009,0.001,-0.064,0.474,-0.001,-0.058,0.454,-0.25,-0.661,6.794,0
2025-05-30 17:43:37.858,0.061,-0.009,9.846,-0.01,-0.002,0.016,-0.0639,-0.0192,-0.1917,-0.0435,-0.0244,-0.1716,35,0.28,-1.1,0.54,0.9983,0.0025,-0.0096,0.0047,0.001,-0.067,0.475,-0.0,-0.058,0.455,-0.25,-0.664,6.817,0
2025-05-30 17:43:37.911,0.092,-0.04,9.844,0.007,0.059,0.015,-0.0149,0.0895,0.0298,-0.0179,0.0797,0.0095,35,-0.25,-1.18,0.58,0.9982,-0.0022,-0.0103,0.005,0.001,-0.065,0.474,-0.0,-0.058,0.455,-0.25,-0.667,6.84,0
2025-05-30 17:43:37.967,0.084,-0.005,9.862,0.013,-0.025,0.033,0.049,0.0192,0.0447,0.0422,0.0268,0.041,35,0.44,-1.1,0.68,0.9982,0.0039,-0.0096,0.006,0.001,-0.064,0.475,-0.0,-0.059,0.456,-0.25,-0.67,6.862,0
2025-05-30 17:43:38.023,0.088,-0.005,9.872,-0.063,0.032,0.045,0.0511,-0.0639,-0.0447,0.0501,-0.0533,-0.0364,35,0.11,-1.57,0.59,0.9982,0.001,-0.0137,0.0051,-0.0,-0.064,0.476,-0.0,-0.059,0.456,-0.25,-0.673,6.885,0
2025-05-30 17:43:38.072,0.052,-0.009,9.833,-0.068,0.035,0.005,-0.0852,-0.1385,-0.0937,-0.0718,-0.1284,-0.0882,35,0.07,-1.39,0.33,0.9982,0.0006,-0.0121,0.0029,-0.004,-0.062,0.477,-0.0,-0.059,0.457,-0.25,-0.675,6.908,0
2025-05-30 17:43:38.126,0.083,-0.038,9.856,0.041,0.016,0.026,-0.0533,-0.0277,-0.049,-0.0552,-0.0362,-0.0531,35,0.01,-0.93,0.18,0.9983,0.0001,-0.0081,0.0015,-0.004,-0.061,0.477,-0.001,-0.059,0.458,-0.25,-0.678,6.931,0
2025-05-30 17:43:38.181,0.065,-0.004,9.86,-0.076,-0.048,0.033,0.0256,-0.13,-0.0788,0.0174,-0.119,-0.0764,35,0.58,-1.51,-0.05,0.9982,0.0051,-0.0132,-0.0004,-0.005,-0.062,0.478,-0.001,-0.059,0.458,-0.25,-0.681,6.954,0
2025-05-30 17:43:38.235,0.072,-0.009,9.855,-0.032,0.023,0.026,-0.0405,-0.081,-0.032,-0.0348,-0.0832,-0.0366,35,0.13,-1.29,-0.15,0.9982,0.0012,-0.0113,-0.0013,-0.008,-0.063,0.479,-0.001,-0.059,0.459,-0.25,-0.684,6.977,0
2025-05-30 17:43:38.290,0.056,0.007,9.855,0.012,-0.041,0.025,0.0426,-0.0277,-0.1065,0.0348,-0.0317,-0.0997,35,0.6,-0.94,-0.44,0.9983,0.0052,-0.0082,-0.0038,-0.009,-0.063,0.48,-0.001,-0.059,0.46,-0.25,-0.687,7.0,0
2025-05-30 17:43:38.344,0.092,-0.007,9.867,-0.038,0.022,0.039,-0.0128,-0.049,-0.0277,-0.0081,-0.0457,-0.0351,35,0.15,-1.45,-0.54,0.9982,0.0013,-0.0126,-0.0047,-0.01,-0.064,0.481,-0.001,-0.059,0.46,-0.25,-0.69,7.023,0
2025-05-30 17:43:38.398,0.097,-0.018,9.849,0.112,-0.045,0.019,0.0554,0.1236,0.0746,0.0489,0.1082,0.0634,35,0.48,-0.6,-0.36,0.9983,0.0042,-0.0052,-0.0031,-0.008,-0.064,0.481,-0.002,-0.06,0.461,-0.251,-0.693,7.046,0
2025-05-30 17:43:38.451,0.092,0.0,9.865,0.044,-0.033,0.036,0.0639,0.0597,0.0298,0.0623,0.0661,0.033,35,0.52,-0.97,-0.26,0.9983,0.0045,-0.0085,-0.0022,-0.004,-0.066,0.482,-0.002,-0.06,0.462,-0.251,-0.696,7.069,0
2025-05-30 17:43:38.511,0.054,-0.036,9.846,0.036,0.056,0.015,-0.0703,0.0788,-0.0597,-0.0572,0.0791,-0.0506,35,-0.21,-0.79,-0.39,0.9983,-0.0019,-0.0069,-0.0035,-0.002,-0.065,0.482,-0.002,-0.06,0.462,-0.251,-0.699,7.092,0
2025-05-30 17:43:38.566,0.09,-0.014,9.851,0.015,-0.022,0.022,0.0703,0.0128,0.0575,0.0574,0.021,0.0465,35,0.37,-1.12,-0.27,0.9983,0.0032,-0.0098,-0.0023,-0.001,-0.065,0.482,-0.002,-0.06,0.463,-0.251,-0.702,7.115,0
2025-05-30 17:43:38.619,0.099,-0.016,9.862,-0.069,0.049,0.035,-0.0192,-0.0575,-0.13,-0.0116,-0.0481,-0.1125,35,-0.06,-1.67,-0.58,0.9982,-0.0006,-0.0146,-0.0051,-0.003,-0.064,0.483,-0.002,-0.06,0.463,-0.251,-0.705,7.138,0
